trial,target,left,right,condition,response_time,key,subject,language
3,16,16,14,nomemRT,2492,x,1,english
4,2,2,6,nomemRT,979,x,1,english
5,12,12,16,nomemRT,724,x,1,english
6,3,7,3,nomemRT,539,.,1,english
7,1,1,5,nomemRT,459,x,1,english
8,18,20,18,nomemRT,2572,.,1,english
9,13,15,13,nomemRT,1406,.,1,english
10,5,5,9,nomemRT,629,x,1,english
11,10,10,12,nomemRT,553,x,1,english
12,11,7,11,nomemRT,820,.,1,english
13,17,17,19,nomemRT,541,.,1,english
14,14,12,14,nomemRT,492,.,1,english
15,4,8,4,nomemRT,467,x,1,english
16,2,2,4,nomemRT,627,x,1,english
17,14,16,14,nomemRT,1007,.,1,english
18,20,20,16,nomemRT,538,x,1,english
19,7,7,11,nomemRT,577,x,1,english
20,13,13,17,nomemRT,575,x,1,english
21,7,7,5,nomemRT,750,.,1,english
22,8,12,8,nomemRT,640,.,1,english
23,7,3,7,nomemRT,507,x,1,english
24,3,5,3,nomemRT,467,.,1,english
25,1,5,1,nomemRT,661,.,1,english
26,14,10,14,nomemRT,531,.,1,english
27,8,8,12,nomemRT,559,x,1,english
28,7,9,7,nomemRT,544,.,1,english
29,12,12,10,nomemRT,769,x,1,english
30,11,11,13,nomemRT,2693,x,1,english
31,4,2,4,nomemRT,940,.,1,english
32,11,15,11,nomemRT,675,.,1,english
33,18,14,18,nomemRT,604,.,1,english
34,8,4,8,nomemRT,462,.,1,english
35,10,8,10,nomemRT,1936,.,1,english
36,19,19,15,nomemRT,506,x,1,english
37,16,16,12,nomemRT,560,x,1,english
38,9,11,9,nomemRT,652,.,1,english
39,5,1,5,nomemRT,528,.,1,english
40,3,3,5,nomemRT,555,x,1,english
41,3,1,3,nomemRT,639,.,1,english
42,3,3,7,nomemRT,687,x,1,english
43,6,6,8,nomemRT,572,x,1,english
44,15,15,19,nomemRT,791,x,1,english
45,20,20,18,nomemRT,673,x,1,english
46,6,10,6,nomemRT,466,.,1,english
47,14,14,18,nomemRT,491,x,1,english
48,11,11,7,nomemRT,469,x,1,english
49,13,9,13,nomemRT,511,.,1,english
50,18,16,18,nomemRT,688,.,1,english
51,3,3,1,nomemRT,619,x,1,english
52,10,10,6,nomemRT,410,x,1,english
53,1,3,1,nomemRT,438,.,1,english
54,16,16,20,nomemRT,455,x,1,english
55,2,4,2,nomemRT,445,.,1,english
56,7,7,3,nomemRT,513,x,1,english
57,7,7,9,nomemRT,434,.,1,english
58,13,13,9,nomemRT,459,x,1,english
59,13,11,13,nomemRT,1116,.,1,english
60,13,17,13,nomemRT,436,x,1,english
61,10,6,10,nomemRT,781,.,1,english
62,11,9,11,nomemRT,860,.,1,english
63,19,15,19,nomemRT,458,.,1,english
64,11,13,11,nomemRT,673,.,1,english
65,5,5,1,nomemRT,757,x,1,english
66,5,9,5,nomemRT,438,.,1,english
67,19,17,19,nomemRT,1087,.,1,english
68,18,18,16,nomemRT,579,x,1,english
69,10,14,10,nomemRT,529,.,1,english
70,14,18,14,nomemRT,605,.,1,english
71,5,5,7,nomemRT,619,x,1,english
72,8,8,4,nomemRT,642,x,1,english
73,9,9,7,nomemRT,488,.,1,english
74,8,8,6,nomemRT,532,x,1,english
75,15,11,15,nomemRT,479,.,1,english
76,14,14,16,nomemRT,720,x,1,english
77,9,9,5,nomemRT,566,x,1,english
78,2,6,2,nomemRT,530,.,1,english
79,5,5,3,nomemRT,558,x,1,english
80,17,13,17,nomemRT,442,.,1,english
81,20,18,20,nomemRT,917,.,1,english
82,15,19,15,nomemRT,766,.,1,english
83,15,15,11,nomemRT,725,x,1,english
84,13,13,15,nomemRT,616,x,1,english
85,17,19,17,nomemRT,663,.,1,english
86,12,12,8,nomemRT,709,x,1,english
87,14,14,10,nomemRT,510,x,1,english
88,16,16,18,nomemRT,734,x,1,english
89,4,4,2,nomemRT,565,x,1,english
90,17,15,17,nomemRT,498,.,1,english
91,12,12,14,nomemRT,872,x,1,english
92,11,11,9,nomemRT,665,x,1,english
93,15,15,13,nomemRT,526,x,1,english
94,6,2,6,nomemRT,819,.,1,english
95,18,18,14,nomemRT,492,x,1,english
96,10,12,10,nomemRT,696,.,1,english
97,13,13,11,nomemRT,486,x,1,english
98,16,20,16,nomemRT,570,.,1,english
99,6,4,6,nomemRT,510,x,1,english
100,6,6,4,nomemRT,559,x,1,english
101,17,17,13,nomemRT,442,x,1,english
102,8,10,8,nomemRT,486,.,1,english
103,4,4,8,nomemRT,537,x,1,english
104,10,10,14,nomemRT,512,x,1,english
105,11,11,15,nomemRT,513,x,1,english
106,4,4,6,nomemRT,578,x,1,english
107,12,8,12,nomemRT,475,.,1,english
108,17,17,15,nomemRT,460,x,1,english
109,12,10,12,nomemRT,858,.,1,english
110,8,6,8,nomemRT,569,.,1,english
111,6,6,10,nomemRT,636,x,1,english
112,15,17,15,nomemRT,1085,.,1,english
113,9,5,9,nomemRT,483,.,1,english
114,6,6,2,nomemRT,488,x,1,english
115,14,14,12,nomemRT,507,x,1,english
116,10,10,8,nomemRT,571,x,1,english
117,9,9,13,nomemRT,592,x,1,english
118,8,8,10,nomemRT,513,x,1,english
119,9,9,11,nomemRT,1021,x,1,english
120,7,5,7,nomemRT,1043,.,1,english
121,9,7,9,nomemRT,871,.,1,english
122,19,19,17,nomemRT,819,x,1,english
123,16,14,16,nomemRT,440,.,1,english
124,7,11,7,nomemRT,580,.,1,english
125,20,16,20,nomemRT,494,.,1,english
126,12,16,12,nomemRT,583,.,1,english
127,16,12,16,nomemRT,445,.,1,english
128,5,7,5,nomemRT,585,.,1,english
129,6,8,6,nomemRT,463,.,1,english
130,16,18,16,nomemRT,485,.,1,english
131,15,13,15,nomemRT,748,.,1,english
132,1,1,3,nomemRT,797,x,1,english
133,4,6,4,nomemRT,534,.,1,english
134,9,13,9,nomemRT,559,.,1,english
135,5,3,5,nomemRT,787,.,1,english
136,12,14,12,nomemRT,500,.,1,english
137,15,15,17,nomemRT,797,x,1,english
138,18,18,20,nomemRT,654,.,1,english
141,8,10,8,nomemRT_spatialint,2431,.,1,english
142,20,16,20,nomemRT_spatialint,939,.,1,english
143,20,18,20,nomemRT_spatialint,758,.,1,english
144,10,8,10,nomemRT_spatialint,714,.,1,english
145,9,13,9,nomemRT_spatialint,606,.,1,english
146,12,12,10,nomemRT_spatialint,552,x,1,english
147,10,10,14,nomemRT_spatialint,653,x,1,english
148,13,17,13,nomemRT_spatialint,481,.,1,english
149,10a,G,right,nomemRT_spatialint,8574,.,1,english
151,13,9,13,nomemRT_spatialint,1231,.,1,english
152,5,5,9,nomemRT_spatialint,556,x,1,english
153,5,5,3,nomemRT_spatialint,690,x,1,english
154,13,15,13,nomemRT_spatialint,715,.,1,english
155,2,4,2,nomemRT_spatialint,560,.,1,english
156,8,8,4,nomemRT_spatialint,530,x,1,english
157,14,12,14,nomemRT_spatialint,578,.,1,english
158,20,20,18,nomemRT_spatialint,591,x,1,english
159,12b,G,left,nomemRT_spatialint,1896,x,1,english
161,12,12,16,nomemRT_spatialint,927,x,1,english
162,1,3,1,nomemRT_spatialint,483,.,1,english
163,16,12,16,nomemRT_spatialint,420,.,1,english
164,7,11,7,nomemRT_spatialint,528,.,1,english
165,11,11,15,nomemRT_spatialint,561,x,1,english
166,13,13,17,nomemRT_spatialint,482,x,1,english
167,9,9,5,nomemRT_spatialint,489,x,1,english
168,4,4,8,nomemRT_spatialint,479,x,1,english
169,13b,G,left,nomemRT_spatialint,2894,x,1,english
171,6,6,8,nomemRT_spatialint,655,x,1,english
172,9,11,9,nomemRT_spatialint,494,.,1,english
173,11,11,9,nomemRT_spatialint,592,x,1,english
174,13,13,15,nomemRT_spatialint,569,x,1,english
175,19,19,15,nomemRT_spatialint,545,x,1,english
176,16,18,16,nomemRT_spatialint,448,x,1,english
177,6,6,10,nomemRT_spatialint,657,x,1,english
178,17,17,19,nomemRT_spatialint,964,x,1,english
179,4a,G,left,nomemRT_spatialint,4026,x,1,english
181,1,1,3,nomemRT_spatialint,885,x,1,english
182,5,9,5,nomemRT_spatialint,571,.,1,english
183,12,10,12,nomemRT_spatialint,693,.,1,english
184,16,16,12,nomemRT_spatialint,458,x,1,english
185,8,8,10,nomemRT_spatialint,436,x,1,english
186,15,19,15,nomemRT_spatialint,583,.,1,english
187,6,4,6,nomemRT_spatialint,875,.,1,english
188,6,8,6,nomemRT_spatialint,648,.,1,english
189,9a,G,right,nomemRT_spatialint,2976,.,1,english
191,6,6,4,nomemRT_spatialint,959,x,1,english
192,14,14,10,nomemRT_spatialint,422,x,1,english
193,5,7,5,nomemRT_spatialint,515,.,1,english
194,3,3,7,nomemRT_spatialint,432,x,1,english
195,18,18,16,nomemRT_spatialint,447,x,1,english
196,17,13,17,nomemRT_spatialint,415,.,1,english
197,14,14,18,nomemRT_spatialint,562,x,1,english
198,17,17,15,nomemRT_spatialint,477,x,1,english
199,3a,G,right,nomemRT_spatialint,2225,.,1,english
201,4,6,4,nomemRT_spatialint,768,.,1,english
202,5,1,5,nomemRT_spatialint,433,x,1,english
203,15,15,11,nomemRT_spatialint,454,x,1,english
204,6,10,6,nomemRT_spatialint,484,.,1,english
205,9,9,11,nomemRT_spatialint,596,x,1,english
206,4,8,4,nomemRT_spatialint,426,.,1,english
207,11,9,11,nomemRT_spatialint,577,.,1,english
208,7,7,11,nomemRT_spatialint,500,x,1,english
209,15b,G,left,nomemRT_spatialint,2533,x,1,english
211,16,20,16,nomemRT_spatialint,741,.,1,english
212,10,14,10,nomemRT_spatialint,475,.,1,english
213,18,18,14,nomemRT_spatialint,480,x,1,english
214,12,16,12,nomemRT_spatialint,401,.,1,english
215,4,2,4,nomemRT_spatialint,569,.,1,english
216,9,9,13,nomemRT_spatialint,539,x,1,english
217,11,11,7,nomemRT_spatialint,535,x,1,english
218,2,2,6,nomemRT_spatialint,459,x,1,english
219,8b,G,left,nomemRT_spatialint,1562,.,1,english
221,19,17,19,nomemRT_spatialint,631,.,1,english
222,10,10,8,nomemRT_spatialint,512,x,1,english
223,10,10,12,nomemRT_spatialint,518,.,1,english
224,16,14,16,nomemRT_spatialint,470,.,1,english
225,8,8,6,nomemRT_spatialint,501,x,1,english
226,15,17,15,nomemRT_spatialint,688,.,1,english
227,2,6,2,nomemRT_spatialint,520,.,1,english
228,15,15,13,nomemRT_spatialint,538,x,1,english
229,1b,G,right,nomemRT_spatialint,2492,.,1,english
231,17,17,13,nomemRT_spatialint,835,x,1,english
232,13,11,13,nomemRT_spatialint,506,.,1,english
233,13,13,9,nomemRT_spatialint,3822,x,1,english
234,5,5,7,nomemRT_spatialint,768,x,1,english
235,3,7,3,nomemRT_spatialint,553,.,1,english
236,3,1,3,nomemRT_spatialint,528,.,1,english
237,14,16,14,nomemRT_spatialint,665,.,1,english
238,15,15,17,nomemRT_spatialint,575,x,1,english
239,16a,G,left,nomemRT_spatialint,1351,x,1,english
241,11,11,13,nomemRT_spatialint,627,x,1,english
242,16,16,14,nomemRT_spatialint,614,x,1,english
243,17,15,17,nomemRT_spatialint,506,.,1,english
244,3,3,5,nomemRT_spatialint,552,x,1,english
245,16,16,18,nomemRT_spatialint,717,x,1,english
246,11,15,11,nomemRT_spatialint,456,.,1,english
247,10,6,10,nomemRT_spatialint,451,.,1,english
248,12,14,12,nomemRT_spatialint,599,.,1,english
249,2b,G,left,nomemRT_spatialint,1927,x,1,english
251,4,4,6,nomemRT_spatialint,625,x,1,english
252,2,2,4,nomemRT_spatialint,511,x,1,english
253,7,7,3,nomemRT_spatialint,613,x,1,english
254,12,12,8,nomemRT_spatialint,409,x,1,english
255,8,8,12,nomemRT_spatialint,538,x,1,english
256,6,6,2,nomemRT_spatialint,509,x,1,english
257,18,20,18,nomemRT_spatialint,2667,.,1,english
258,10,10,6,nomemRT_spatialint,555,x,1,english
259,6b,G,right,nomemRT_spatialint,6230,x,1,english
261,19,15,19,nomemRT_spatialint,586,.,1,english
262,12,8,12,nomemRT_spatialint,550,.,1,english
263,11,7,11,nomemRT_spatialint,564,.,1,english
264,11,13,11,nomemRT_spatialint,542,.,1,english
265,7,9,7,nomemRT_spatialint,474,.,1,english
266,14,18,14,nomemRT_spatialint,488,.,1,english
267,4,4,2,nomemRT_spatialint,633,x,1,english
268,6,2,6,nomemRT_spatialint,799,.,1,english
269,7a,G,right,nomemRT_spatialint,1334,.,1,english
271,10,12,10,nomemRT_spatialint,918,.,1,english
272,18,16,18,nomemRT_spatialint,652,.,1,english
273,9,9,7,nomemRT_spatialint,512,x,1,english
274,7,7,5,nomemRT_spatialint,702,x,1,english
275,13,13,11,nomemRT_spatialint,489,x,1,english
276,14,14,16,nomemRT_spatialint,1006,x,1,english
277,3,3,1,nomemRT_spatialint,702,x,1,english
278,7,3,7,nomemRT_spatialint,491,.,1,english
279,17a,G,right,nomemRT_spatialint,2525,.,1,english
281,8,12,8,nomemRT_spatialint,669,.,1,english
282,15,15,19,nomemRT_spatialint,507,x,1,english
283,9,7,9,nomemRT_spatialint,481,.,1,english
284,7,7,9,nomemRT_spatialint,530,x,1,english
285,5,3,5,nomemRT_spatialint,555,.,1,english
286,8,6,8,nomemRT_spatialint,744,.,1,english
287,7,5,7,nomemRT_spatialint,566,.,1,english
288,18,14,18,nomemRT_spatialint,417,.,1,english
289,14b,G,left,nomemRT_spatialint,2578,x,1,english
291,17,19,17,nomemRT_spatialint,780,.,1,english
292,1,1,5,nomemRT_spatialint,520,x,1,english
293,9,5,9,nomemRT_spatialint,496,.,1,english
294,16,16,20,nomemRT_spatialint,525,x,1,english
295,14,14,12,nomemRT_spatialint,517,x,1,english
296,14,10,14,nomemRT_spatialint,470,.,1,english
297,19,19,17,nomemRT_spatialint,486,x,1,english
298,15,13,15,nomemRT_spatialint,615,.,1,english
299,5a,G,right,nomemRT_spatialint,2333,.,1,english
301,3,5,3,nomemRT_spatialint,559,.,1,english
302,1,5,1,nomemRT_spatialint,430,.,1,english
303,20,20,16,nomemRT_spatialint,565,x,1,english
304,5,5,1,nomemRT_spatialint,542,x,1,english
305,15,11,15,nomemRT_spatialint,479,.,1,english
306,12,12,14,nomemRT_spatialint,690,x,1,english
307,18,18,20,nomemRT_spatialint,950,x,1,english
308,8,4,8,nomemRT_spatialint,500,.,1,english
309,11b,G,right,nomemRT_spatialint,867,.,1,english
312,20,18,20,nomemRT_verbalint,823,.,1,english
313,10,14,10,nomemRT_verbalint,526,.,1,english
314,7,7,9,nomemRT_verbalint,599,.,1,english
315,9,13,9,nomemRT_verbalint,488,.,1,english
316,2,2,6,nomemRT_verbalint,545,x,1,english
317,10,10,12,nomemRT_verbalint,487,.,1,english
318,12,10,12,nomemRT_verbalint,585,.,1,english
319,11,11,7,nomemRT_verbalint,527,x,1,english
320,57327528,N,right,nomemRT_verbalint,1436,.,1,english
322,9,9,7,nomemRT_verbalint,1097,x,1,english
323,7,7,5,nomemRT_verbalint,445,x,1,english
324,14,18,14,nomemRT_verbalint,559,.,1,english
325,15,17,15,nomemRT_verbalint,608,.,1,english
326,14,10,14,nomemRT_verbalint,465,.,1,english
327,13,15,13,nomemRT_verbalint,560,.,1,english
328,10,10,6,nomemRT_verbalint,720,x,1,english
329,14,14,10,nomemRT_verbalint,463,x,1,english
330,53595614,N,right,nomemRT_verbalint,2733,x,1,english
332,14,14,16,nomemRT_verbalint,585,x,1,english
333,17,17,19,nomemRT_verbalint,527,x,1,english
334,11,7,11,nomemRT_verbalint,519,.,1,english
335,4,6,4,nomemRT_verbalint,503,.,1,english
336,3,1,3,nomemRT_verbalint,549,.,1,english
337,11,9,11,nomemRT_verbalint,798,.,1,english
338,8,8,4,nomemRT_verbalint,455,x,1,english
339,13,9,13,nomemRT_verbalint,394,.,1,english
340,14487925,N,left,nomemRT_verbalint,2502,x,1,english
342,12,12,8,nomemRT_verbalint,591,x,1,english
343,14,12,14,nomemRT_verbalint,815,.,1,english
344,3,3,5,nomemRT_verbalint,675,x,1,english
345,7,3,7,nomemRT_verbalint,514,.,1,english
346,18,16,18,nomemRT_verbalint,943,.,1,english
347,14,14,12,nomemRT_verbalint,725,x,1,english
348,16,18,16,nomemRT_verbalint,607,.,1,english
349,6,6,8,nomemRT_verbalint,592,x,1,english
350,63931136,N,right,nomemRT_verbalint,1516,.,1,english
352,4,2,4,nomemRT_verbalint,834,x,1,english
353,5,5,3,nomemRT_verbalint,445,x,1,english
354,8,6,8,nomemRT_verbalint,1409,.,1,english
355,8,8,12,nomemRT_verbalint,793,x,1,english
356,13,11,13,nomemRT_verbalint,672,.,1,english
357,20,20,18,nomemRT_verbalint,982,x,1,english
358,4,4,8,nomemRT_verbalint,645,x,1,english
359,5,5,9,nomemRT_verbalint,525,x,1,english
360,83269642,N,left,nomemRT_verbalint,1781,x,1,english
362,12,12,10,nomemRT_verbalint,556,x,1,english
363,16,14,16,nomemRT_verbalint,485,.,1,english
364,1,1,5,nomemRT_verbalint,391,x,1,english
365,5,9,5,nomemRT_verbalint,547,.,1,english
366,12,12,14,nomemRT_verbalint,611,x,1,english
367,16,20,16,nomemRT_verbalint,550,.,1,english
368,14,16,14,nomemRT_verbalint,606,.,1,english
369,8,4,8,nomemRT_verbalint,775,.,1,english
370,99968365,N,left,nomemRT_verbalint,2526,x,1,english
372,5,3,5,nomemRT_verbalint,895,.,1,english
373,7,5,7,nomemRT_verbalint,516,.,1,english
374,8,12,8,nomemRT_verbalint,514,.,1,english
375,17,17,15,nomemRT_verbalint,617,x,1,english
376,19,19,15,nomemRT_verbalint,427,x,1,english
377,11,13,11,nomemRT_verbalint,529,.,1,english
378,9,9,11,nomemRT_verbalint,566,x,1,english
379,16,16,14,nomemRT_verbalint,510,x,1,english
380,91831522,N,left,nomemRT_verbalint,3363,x,1,english
382,11,15,11,nomemRT_verbalint,615,.,1,english
383,6,4,6,nomemRT_verbalint,659,x,1,english
384,9,9,5,nomemRT_verbalint,479,x,1,english
385,13,17,13,nomemRT_verbalint,552,.,1,english
386,20,16,20,nomemRT_verbalint,447,.,1,english
387,15,15,11,nomemRT_verbalint,416,x,1,english
388,5,7,5,nomemRT_verbalint,571,.,1,english
389,3,3,7,nomemRT_verbalint,557,x,1,english
390,74538748,N,right,nomemRT_verbalint,3686,.,1,english
392,17,17,13,nomemRT_verbalint,590,x,1,english
393,5,5,1,nomemRT_verbalint,421,x,1,english
394,18,18,14,nomemRT_verbalint,399,x,1,english
395,9,7,9,nomemRT_verbalint,472,.,1,english
396,3,3,1,nomemRT_verbalint,360,x,1,english
397,9,9,13,nomemRT_verbalint,536,x,1,english
398,18,18,16,nomemRT_verbalint,396,x,1,english
399,11,11,15,nomemRT_verbalint,381,x,1,english
400,69585974,N,right,nomemRT_verbalint,2767,.,1,english
402,15,15,13,nomemRT_verbalint,638,x,1,english
403,6,6,2,nomemRT_verbalint,431,x,1,english
404,16,16,18,nomemRT_verbalint,431,x,1,english
405,4,8,4,nomemRT_verbalint,516,.,1,english
406,10,12,10,nomemRT_verbalint,598,x,1,english
407,13,13,11,nomemRT_verbalint,452,x,1,english
408,5,1,5,nomemRT_verbalint,619,.,1,english
409,17,15,17,nomemRT_verbalint,1893,.,1,english
410,78162573,N,right,nomemRT_verbalint,2592,.,1,english
412,9,5,9,nomemRT_verbalint,793,.,1,english
413,16,16,20,nomemRT_verbalint,622,x,1,english
414,20,20,16,nomemRT_verbalint,447,x,1,english
415,7,7,3,nomemRT_verbalint,433,x,1,english
416,12,14,12,nomemRT_verbalint,567,.,1,english
417,10,6,10,nomemRT_verbalint,503,.,1,english
418,1,3,1,nomemRT_verbalint,430,.,1,english
419,19,19,17,nomemRT_verbalint,883,.,1,english
420,84526547,N,left,nomemRT_verbalint,2323,.,1,english
422,8,8,6,nomemRT_verbalint,858,.,1,english
423,6,6,10,nomemRT_verbalint,566,x,1,english
424,12,16,12,nomemRT_verbalint,455,.,1,english
425,3,5,3,nomemRT_verbalint,482,.,1,english
426,17,19,17,nomemRT_verbalint,499,.,1,english
427,17,13,17,nomemRT_verbalint,576,.,1,english
428,7,9,7,nomemRT_verbalint,459,.,1,english
429,18,20,18,nomemRT_verbalint,487,.,1,english
430,32514222,N,right,nomemRT_verbalint,2382,.,1,english
432,19,15,19,nomemRT_verbalint,567,.,1,english
433,14,14,18,nomemRT_verbalint,625,x,1,english
434,6,8,6,nomemRT_verbalint,424,.,1,english
435,12,8,12,nomemRT_verbalint,1086,.,1,english
436,6,10,6,nomemRT_verbalint,439,.,1,english
437,2,2,4,nomemRT_verbalint,654,x,1,english
438,4,4,2,nomemRT_verbalint,572,x,1,english
439,7,11,7,nomemRT_verbalint,440,.,1,english
440,91594938,N,left,nomemRT_verbalint,1918,x,1,english
442,1,5,1,nomemRT_verbalint,619,.,1,english
443,10,10,14,nomemRT_verbalint,566,x,1,english
444,13,13,15,nomemRT_verbalint,760,x,1,english
445,9,11,9,nomemRT_verbalint,514,.,1,english
446,15,15,19,nomemRT_verbalint,463,x,1,english
447,6,2,6,nomemRT_verbalint,542,.,1,english
448,10,10,8,nomemRT_verbalint,489,x,1,english
449,8,10,8,nomemRT_verbalint,740,.,1,english
450,54544199,N,left,nomemRT_verbalint,2351,x,1,english
452,13,13,17,nomemRT_verbalint,802,x,1,english
453,1,1,3,nomemRT_verbalint,506,x,1,english
454,4,4,6,nomemRT_verbalint,530,x,1,english
455,16,16,12,nomemRT_verbalint,449,x,1,english
456,11,11,13,nomemRT_verbalint,437,x,1,english
457,11,11,9,nomemRT_verbalint,471,x,1,english
458,15,15,17,nomemRT_verbalint,605,x,1,english
459,19,17,19,nomemRT_verbalint,741,.,1,english
460,67755493,N,right,nomemRT_verbalint,2711,.,1,english
462,3,7,3,nomemRT_verbalint,658,.,1,english
463,2,4,2,nomemRT_verbalint,504,.,1,english
464,15,19,15,nomemRT_verbalint,430,.,1,english
465,15,13,15,nomemRT_verbalint,445,.,1,english
466,6,6,4,nomemRT_verbalint,518,x,1,english
467,2,6,2,nomemRT_verbalint,453,.,1,english
468,15,11,15,nomemRT_verbalint,441,.,1,english
469,12,12,16,nomemRT_verbalint,483,x,1,english
470,81728193,N,left,nomemRT_verbalint,4898,.,1,english
472,5,5,7,nomemRT_verbalint,623,x,1,english
473,13,13,9,nomemRT_verbalint,519,x,1,english
474,10,8,10,nomemRT_verbalint,433,.,1,english
475,18,14,18,nomemRT_verbalint,527,.,1,english
476,18,18,20,nomemRT_verbalint,1050,x,1,english
477,16,12,16,nomemRT_verbalint,541,.,1,english
478,8,8,10,nomemRT_verbalint,585,x,1,english
479,7,7,11,nomemRT_verbalint,437,x,1,english
480,57142295,N,right,nomemRT_verbalint,1782,.,1,english
3,16,12,16,nomemRT,5835,.,2,english
4,13,13,9,nomemRT,4624,x,2,english
5,16,14,16,nomemRT,3291,.,2,english
6,10,10,14,nomemRT,1874,x,2,english
7,7,7,9,nomemRT,3423,x,2,english
8,5,3,5,nomemRT,2057,x,2,english
9,13,17,13,nomemRT,1187,.,2,english
10,15,17,15,nomemRT,1492,.,2,english
11,9,9,5,nomemRT,1744,x,2,english
12,11,11,7,nomemRT,1608,x,2,english
13,15,11,15,nomemRT,1445,.,2,english
14,16,16,20,nomemRT,1252,x,2,english
15,20,16,20,nomemRT,1728,.,2,english
16,10,6,10,nomemRT,1468,.,2,english
17,12,12,16,nomemRT,1157,x,2,english
18,10,12,10,nomemRT,1086,.,2,english
19,15,19,15,nomemRT,1253,.,2,english
20,12,12,14,nomemRT,1641,x,2,english
21,3,5,3,nomemRT,1781,.,2,english
22,14,14,10,nomemRT,1388,x,2,english
23,2,6,2,nomemRT,1112,.,2,english
24,1,1,5,nomemRT,955,x,2,english
25,13,9,13,nomemRT,1077,.,2,english
26,2,4,2,nomemRT,2801,.,2,english
27,10,10,8,nomemRT,1783,.,2,english
28,17,17,13,nomemRT,1302,x,2,english
29,4,8,4,nomemRT,1013,.,2,english
30,5,5,9,nomemRT,893,x,2,english
31,12,8,12,nomemRT,1012,.,2,english
32,18,14,18,nomemRT,1371,.,2,english
33,7,5,7,nomemRT,2614,.,2,english
34,5,1,5,nomemRT,1301,.,2,english
35,14,16,14,nomemRT,1652,.,2,english
36,6,2,6,nomemRT,1141,.,2,english
37,11,11,15,nomemRT,1543,x,2,english
38,12,12,10,nomemRT,1901,x,2,english
39,9,13,9,nomemRT,988,.,2,english
40,9,9,13,nomemRT,1264,x,2,english
41,19,19,15,nomemRT,2927,x,2,english
42,16,20,16,nomemRT,1630,.,2,english
43,11,9,11,nomemRT,2143,.,2,english
44,5,5,3,nomemRT,2302,x,2,english
45,18,18,14,nomemRT,1488,x,2,english
46,1,1,3,nomemRT,1764,x,2,english
47,5,5,7,nomemRT,2168,x,2,english
48,10,14,10,nomemRT,1711,.,2,english
49,13,13,17,nomemRT,1312,x,2,english
50,4,6,4,nomemRT,1794,.,2,english
51,20,20,16,nomemRT,1235,x,2,english
52,11,13,11,nomemRT,2111,.,2,english
53,14,14,18,nomemRT,1280,x,2,english
54,4,4,2,nomemRT,4295,x,2,english
55,9,11,9,nomemRT,1527,.,2,english
56,18,18,16,nomemRT,1971,x,2,english
57,8,8,6,nomemRT,1791,x,2,english
58,11,11,9,nomemRT,1960,x,2,english
59,13,13,15,nomemRT,3117,x,2,english
60,6,6,10,nomemRT,1209,x,2,english
61,16,16,12,nomemRT,1192,x,2,english
62,8,8,12,nomemRT,1076,x,2,english
63,8,10,8,nomemRT,1973,.,2,english
64,4,2,4,nomemRT,1772,.,2,english
65,17,15,17,nomemRT,4896,.,2,english
66,3,7,3,nomemRT,1067,.,2,english
67,15,15,17,nomemRT,5132,x,2,english
68,5,9,5,nomemRT,1004,.,2,english
69,1,3,1,nomemRT,1864,.,2,english
70,15,15,19,nomemRT,1998,x,2,english
71,20,18,20,nomemRT,2184,.,2,english
72,3,3,1,nomemRT,2402,x,2,english
73,14,14,12,nomemRT,1606,x,2,english
74,8,12,8,nomemRT,1154,.,2,english
75,12,14,12,nomemRT,8787,.,2,english
76,8,4,8,nomemRT,1106,.,2,english
77,12,12,8,nomemRT,1043,x,2,english
78,17,17,19,nomemRT,3258,.,2,english
79,10,10,12,nomemRT,2556,x,2,english
80,12,10,12,nomemRT,2405,.,2,english
81,11,7,11,nomemRT,1002,.,2,english
82,14,18,14,nomemRT,3200,.,2,english
83,17,19,17,nomemRT,2189,.,2,english
84,14,10,14,nomemRT,1793,.,2,english
85,7,7,3,nomemRT,1466,x,2,english
86,15,15,11,nomemRT,948,x,2,english
87,5,5,1,nomemRT,949,x,2,english
88,6,4,6,nomemRT,2121,.,2,english
89,6,6,8,nomemRT,3453,x,2,english
90,3,3,7,nomemRT,1527,x,2,english
91,8,6,8,nomemRT,1499,.,2,english
92,6,6,4,nomemRT,1322,x,2,english
93,13,11,13,nomemRT,1822,.,2,english
94,10,10,6,nomemRT,1189,x,2,english
95,9,9,7,nomemRT,1510,x,2,english
96,17,13,17,nomemRT,1307,.,2,english
97,18,18,20,nomemRT,3580,.,2,english
98,15,15,13,nomemRT,1534,x,2,english
99,6,6,2,nomemRT,1167,x,2,english
100,9,7,9,nomemRT,1611,.,2,english
101,5,7,5,nomemRT,1975,.,2,english
102,19,17,19,nomemRT,1520,.,2,english
103,18,16,18,nomemRT,1333,.,2,english
104,20,20,18,nomemRT,1849,x,2,english
105,8,8,10,nomemRT,1845,x,2,english
106,3,1,3,nomemRT,1832,.,2,english
107,8,8,4,nomemRT,1073,x,2,english
108,3,3,5,nomemRT,1062,x,2,english
109,14,12,14,nomemRT,1213,.,2,english
110,13,15,13,nomemRT,2489,.,2,english
111,7,7,11,nomemRT,1885,x,2,english
112,7,7,5,nomemRT,3257,x,2,english
113,6,8,6,nomemRT,1505,.,2,english
114,1,5,1,nomemRT,1113,.,2,english
115,18,20,18,nomemRT,5621,.,2,english
116,7,11,7,nomemRT,1128,.,2,english
117,16,18,16,nomemRT,1444,.,2,english
118,15,13,15,nomemRT,1512,.,2,english
119,6,10,6,nomemRT,1113,.,2,english
120,17,17,15,nomemRT,2229,x,2,english
121,4,4,6,nomemRT,2646,x,2,english
122,2,2,4,nomemRT,1291,x,2,english
123,7,9,7,nomemRT,2279,.,2,english
124,11,15,11,nomemRT,1358,.,2,english
125,9,5,9,nomemRT,903,.,2,english
126,10,8,10,nomemRT,1344,.,2,english
127,16,16,18,nomemRT,1991,.,2,english
128,4,4,8,nomemRT,1331,x,2,english
129,2,2,6,nomemRT,1431,x,2,english
130,14,14,16,nomemRT,2488,x,2,english
131,19,15,19,nomemRT,1205,.,2,english
132,7,3,7,nomemRT,1635,.,2,english
133,11,11,13,nomemRT,3181,x,2,english
134,12,16,12,nomemRT,1156,.,2,english
135,13,13,11,nomemRT,1069,x,2,english
136,19,19,17,nomemRT,1281,x,2,english
137,16,16,14,nomemRT,1160,x,2,english
138,9,9,11,nomemRT,1406,x,2,english
141,14,18,14,nomemRT_verbalint,2988,.,2,english
142,15,15,13,nomemRT_verbalint,2466,x,2,english
143,13,11,13,nomemRT_verbalint,2864,.,2,english
144,9,11,9,nomemRT_verbalint,1047,.,2,english
145,9,9,5,nomemRT_verbalint,1193,x,2,english
146,5,9,5,nomemRT_verbalint,832,.,2,english
147,6,8,6,nomemRT_verbalint,950,.,2,english
148,3,3,5,nomemRT_verbalint,1229,x,2,english
149,57327528,N,right,nomemRT_verbalint,3941,.,2,english
151,20,18,20,nomemRT_verbalint,2236,.,2,english
152,1,3,1,nomemRT_verbalint,1737,.,2,english
153,8,10,8,nomemRT_verbalint,1340,.,2,english
154,1,1,5,nomemRT_verbalint,1168,x,2,english
155,13,13,17,nomemRT_verbalint,1098,x,2,english
156,13,9,13,nomemRT_verbalint,3165,.,2,english
157,14,16,14,nomemRT_verbalint,2016,.,2,english
158,10,8,10,nomemRT_verbalint,2045,.,2,english
159,53595614,N,right,nomemRT_verbalint,3746,.,2,english
161,13,13,11,nomemRT_verbalint,4073,x,2,english
162,15,13,15,nomemRT_verbalint,2054,.,2,english
163,4,4,8,nomemRT_verbalint,1021,x,2,english
164,8,6,8,nomemRT_verbalint,1735,.,2,english
165,16,16,18,nomemRT_verbalint,2644,x,2,english
166,5,7,5,nomemRT_verbalint,2462,.,2,english
167,12,16,12,nomemRT_verbalint,1138,.,2,english
168,9,13,9,nomemRT_verbalint,981,.,2,english
169,14487925,N,left,nomemRT_verbalint,4447,x,2,english
171,16,16,14,nomemRT_verbalint,3134,x,2,english
172,19,19,15,nomemRT_verbalint,1290,x,2,english
173,5,1,5,nomemRT_verbalint,1398,.,2,english
174,11,15,11,nomemRT_verbalint,1150,.,2,english
175,18,16,18,nomemRT_verbalint,1693,.,2,english
176,16,16,20,nomemRT_verbalint,1641,x,2,english
177,16,18,16,nomemRT_verbalint,1260,.,2,english
178,12,12,8,nomemRT_verbalint,1055,x,2,english
179,63931136,N,right,nomemRT_verbalint,2489,.,2,english
181,2,4,2,nomemRT_verbalint,2392,.,2,english
182,13,13,15,nomemRT_verbalint,2816,x,2,english
183,8,8,4,nomemRT_verbalint,932,x,2,english
184,16,20,16,nomemRT_verbalint,928,.,2,english
185,7,9,7,nomemRT_verbalint,1569,.,2,english
186,11,9,11,nomemRT_verbalint,1297,.,2,english
187,9,5,9,nomemRT_verbalint,1198,.,2,english
188,3,3,7,nomemRT_verbalint,2752,x,2,english
189,83269642,N,left,nomemRT_verbalint,4251,x,2,english
191,2,2,6,nomemRT_verbalint,2208,x,2,english
192,6,10,6,nomemRT_verbalint,1272,.,2,english
193,15,15,11,nomemRT_verbalint,1119,x,2,english
194,2,6,2,nomemRT_verbalint,658,.,2,english
195,8,8,10,nomemRT_verbalint,3141,x,2,english
196,7,7,9,nomemRT_verbalint,2610,x,2,english
197,6,4,6,nomemRT_verbalint,1118,x,2,english
198,4,4,2,nomemRT_verbalint,1302,x,2,english
199,99968365,N,left,nomemRT_verbalint,3426,x,2,english
201,12,12,16,nomemRT_verbalint,1534,x,2,english
202,1,1,3,nomemRT_verbalint,2395,x,2,english
203,15,15,19,nomemRT_verbalint,1625,x,2,english
204,15,19,15,nomemRT_verbalint,1158,.,2,english
205,17,17,15,nomemRT_verbalint,753,x,2,english
206,18,18,14,nomemRT_verbalint,799,x,2,english
207,11,11,15,nomemRT_verbalint,1008,x,2,english
208,7,7,5,nomemRT_verbalint,1906,x,2,english
209,91831522,N,left,nomemRT_verbalint,5598,x,2,english
211,12,14,12,nomemRT_verbalint,3311,.,2,english
212,14,14,18,nomemRT_verbalint,1527,x,2,english
213,7,7,3,nomemRT_verbalint,881,x,2,english
214,10,10,6,nomemRT_verbalint,920,x,2,english
215,17,17,19,nomemRT_verbalint,1555,x,2,english
216,17,13,17,nomemRT_verbalint,1039,.,2,english
217,15,15,17,nomemRT_verbalint,2034,x,2,english
218,13,17,13,nomemRT_verbalint,801,.,2,english
219,74538748,N,right,nomemRT_verbalint,6640,.,2,english
221,18,18,16,nomemRT_verbalint,2849,x,2,english
222,20,20,18,nomemRT_verbalint,1541,x,2,english
223,6,6,10,nomemRT_verbalint,906,x,2,english
224,12,10,12,nomemRT_verbalint,1328,.,2,english
225,18,20,18,nomemRT_verbalint,1449,.,2,english
226,7,5,7,nomemRT_verbalint,1086,.,2,english
227,5,5,3,nomemRT_verbalint,1072,x,2,english
228,9,9,11,nomemRT_verbalint,2924,x,2,english
229,69585974,N,right,nomemRT_verbalint,7861,.,2,english
231,18,18,20,nomemRT_verbalint,3251,x,2,english
232,7,3,7,nomemRT_verbalint,2030,.,2,english
233,9,9,7,nomemRT_verbalint,1261,x,2,english
234,17,19,17,nomemRT_verbalint,1576,.,2,english
235,11,11,7,nomemRT_verbalint,1092,x,2,english
236,16,16,12,nomemRT_verbalint,824,x,2,english
237,16,12,16,nomemRT_verbalint,935,.,2,english
238,10,10,8,nomemRT_verbalint,1179,x,2,english
239,78162573,N,right,nomemRT_verbalint,3380,.,2,english
241,4,8,4,nomemRT_verbalint,2614,.,2,english
242,6,2,6,nomemRT_verbalint,933,.,2,english
243,8,8,6,nomemRT_verbalint,1519,x,2,english
244,8,12,8,nomemRT_verbalint,808,.,2,english
245,19,17,19,nomemRT_verbalint,1298,.,2,english
246,19,19,17,nomemRT_verbalint,1237,x,2,english
247,11,13,11,nomemRT_verbalint,871,.,2,english
248,5,3,5,nomemRT_verbalint,1213,.,2,english
249,84526547,N,left,nomemRT_verbalint,6350,x,2,english
251,17,17,13,nomemRT_verbalint,1742,x,2,english
252,4,2,4,nomemRT_verbalint,2992,.,2,english
253,12,12,10,nomemRT_verbalint,1104,x,2,english
254,14,14,10,nomemRT_verbalint,855,x,2,english
255,7,11,7,nomemRT_verbalint,1004,.,2,english
256,15,17,15,nomemRT_verbalint,1100,.,2,english
257,17,15,17,nomemRT_verbalint,1249,.,2,english
258,10,12,10,nomemRT_verbalint,800,.,2,english
259,32514222,N,right,nomemRT_verbalint,10048,.,2,english
261,6,6,4,nomemRT_verbalint,2780,x,2,english
262,11,11,9,nomemRT_verbalint,1304,x,2,english
263,14,14,12,nomemRT_verbalint,870,x,2,english
264,13,13,9,nomemRT_verbalint,715,x,2,english
265,5,5,1,nomemRT_verbalint,773,x,2,english
266,9,7,9,nomemRT_verbalint,954,.,2,english
267,4,6,4,nomemRT_verbalint,1064,.,2,english
268,7,7,11,nomemRT_verbalint,1222,x,2,english
269,91594938,N,left,nomemRT_verbalint,5130,x,2,english
271,14,14,16,nomemRT_verbalint,2756,x,2,english
272,13,15,13,nomemRT_verbalint,989,.,2,english
273,10,10,14,nomemRT_verbalint,1180,x,2,english
274,8,8,12,nomemRT_verbalint,783,x,2,english
275,1,5,1,nomemRT_verbalint,832,.,2,english
276,12,12,14,nomemRT_verbalint,1644,x,2,english
277,14,10,14,nomemRT_verbalint,846,.,2,english
278,5,5,7,nomemRT_verbalint,1319,x,2,english
279,54544199,N,left,nomemRT_verbalint,3246,x,2,english
281,3,3,1,nomemRT_verbalint,1956,x,2,english
282,5,5,9,nomemRT_verbalint,1252,x,2,english
283,16,14,16,nomemRT_verbalint,1273,.,2,english
284,11,7,11,nomemRT_verbalint,1008,.,2,english
285,6,6,8,nomemRT_verbalint,2488,x,2,english
286,20,20,16,nomemRT_verbalint,1076,x,2,english
287,6,6,2,nomemRT_verbalint,1518,x,2,english
288,3,5,3,nomemRT_verbalint,2254,.,2,english
289,67755493,N,right,nomemRT_verbalint,2969,.,2,english
291,3,7,3,nomemRT_verbalint,2106,.,2,english
292,8,4,8,nomemRT_verbalint,768,.,2,english
293,20,16,20,nomemRT_verbalint,1234,.,2,english
294,10,14,10,nomemRT_verbalint,1119,.,2,english
295,9,9,13,nomemRT_verbalint,1026,x,2,english
296,18,14,18,nomemRT_verbalint,647,.,2,english
297,3,1,3,nomemRT_verbalint,2849,.,2,english
298,19,15,19,nomemRT_verbalint,942,.,2,english
299,81728193,N,left,nomemRT_verbalint,1935,.,2,english
301,4,4,6,nomemRT_verbalint,2367,x,2,english
302,12,8,12,nomemRT_verbalint,841,.,2,english
303,10,6,10,nomemRT_verbalint,858,.,2,english
304,2,2,4,nomemRT_verbalint,1325,x,2,english
305,11,11,13,nomemRT_verbalint,2928,x,2,english
306,14,12,14,nomemRT_verbalint,1903,x,2,english
307,10,10,12,nomemRT_verbalint,1880,x,2,english
308,15,11,15,nomemRT_verbalint,1170,.,2,english
309,57142295,N,right,nomemRT_verbalint,2016,.,2,english
312,9,9,5,nomemRT_spatialint,4154,x,2,english
313,14,14,12,nomemRT_spatialint,1803,x,2,english
314,17,17,13,nomemRT_spatialint,1069,x,2,english
315,12,10,12,nomemRT_spatialint,1819,.,2,english
316,16,14,16,nomemRT_spatialint,1735,.,2,english
317,9,5,9,nomemRT_spatialint,986,.,2,english
318,9,9,13,nomemRT_spatialint,1680,x,2,english
319,6,10,6,nomemRT_spatialint,939,.,2,english
320,10a,G,right,nomemRT_spatialint,8988,.,2,english
322,12,16,12,nomemRT_spatialint,3248,.,2,english
323,14,14,18,nomemRT_spatialint,1907,x,2,english
324,18,18,14,nomemRT_spatialint,1592,x,2,english
325,13,9,13,nomemRT_spatialint,1433,.,2,english
326,3,3,7,nomemRT_spatialint,1128,x,2,english
327,8,8,10,nomemRT_spatialint,2041,x,2,english
328,9,9,11,nomemRT_spatialint,2411,x,2,english
329,3,3,1,nomemRT_spatialint,1670,x,2,english
330,12b,G,left,nomemRT_spatialint,6144,x,2,english
332,19,19,17,nomemRT_spatialint,2559,x,2,english
333,3,3,5,nomemRT_spatialint,2135,x,2,english
334,18,16,18,nomemRT_spatialint,1355,.,2,english
335,9,13,9,nomemRT_spatialint,906,.,2,english
336,3,7,3,nomemRT_spatialint,1573,.,2,english
337,8,8,6,nomemRT_spatialint,1620,x,2,english
338,16,20,16,nomemRT_spatialint,1215,.,2,english
339,11,11,15,nomemRT_spatialint,1131,x,2,english
340,13b,G,left,nomemRT_spatialint,95884,x,2,english
342,5,3,5,nomemRT_spatialint,4788,.,2,english
343,13,13,11,nomemRT_spatialint,1454,x,2,english
344,20,20,18,nomemRT_spatialint,1186,x,2,english
345,4,4,2,nomemRT_spatialint,1295,x,2,english
346,14,16,14,nomemRT_spatialint,2307,.,2,english
347,1,5,1,nomemRT_spatialint,1098,.,2,english
348,11,11,9,nomemRT_spatialint,1365,x,2,english
349,15,15,11,nomemRT_spatialint,831,x,2,english
350,4a,G,left,nomemRT_spatialint,5163,x,2,english
352,18,20,18,nomemRT_spatialint,1677,.,2,english
353,6,6,10,nomemRT_spatialint,907,x,2,english
354,10,12,10,nomemRT_spatialint,1457,.,2,english
355,7,7,5,nomemRT_spatialint,1590,x,2,english
356,14,10,14,nomemRT_spatialint,1068,.,2,english
357,14,18,14,nomemRT_spatialint,858,.,2,english
358,5,7,5,nomemRT_spatialint,3063,.,2,english
359,15,15,17,nomemRT_spatialint,2934,x,2,english
360,9a,G,right,nomemRT_spatialint,3765,.,2,english
362,16,16,18,nomemRT_spatialint,1097,x,2,english
363,7,7,11,nomemRT_spatialint,877,x,2,english
364,9,7,9,nomemRT_spatialint,1398,.,2,english
365,5,5,3,nomemRT_spatialint,1776,x,2,english
366,18,18,16,nomemRT_spatialint,1066,x,2,english
367,7,11,7,nomemRT_spatialint,946,.,2,english
368,10,10,8,nomemRT_spatialint,1129,x,2,english
369,1,1,3,nomemRT_spatialint,1953,x,2,english
370,3a,G,right,nomemRT_spatialint,2997,.,2,english
372,8,4,8,nomemRT_spatialint,831,.,2,english
373,10,10,6,nomemRT_spatialint,936,x,2,english
374,17,13,17,nomemRT_spatialint,1123,.,2,english
375,17,17,19,nomemRT_spatialint,1252,.,2,english
376,3,1,3,nomemRT_spatialint,1137,.,2,english
377,12,12,16,nomemRT_spatialint,1228,x,2,english
378,10,10,12,nomemRT_spatialint,1473,x,2,english
379,14,14,10,nomemRT_spatialint,1145,x,2,english
380,15b,G,left,nomemRT_spatialint,4340,x,2,english
382,11,15,11,nomemRT_spatialint,1822,.,2,english
383,8,10,8,nomemRT_spatialint,1050,.,2,english
384,1,3,1,nomemRT_spatialint,1110,.,2,english
385,11,9,11,nomemRT_spatialint,1246,.,2,english
386,16,12,16,nomemRT_spatialint,1758,.,2,english
387,15,11,15,nomemRT_spatialint,1087,.,2,english
388,5,1,5,nomemRT_spatialint,1305,.,2,english
389,17,15,17,nomemRT_spatialint,1159,.,2,english
390,8b,G,left,nomemRT_spatialint,4233,x,2,english
392,16,18,16,nomemRT_spatialint,5239,.,2,english
393,10,8,10,nomemRT_spatialint,1303,.,2,english
394,6,6,2,nomemRT_spatialint,749,x,2,english
395,5,5,1,nomemRT_spatialint,915,x,2,english
396,12,8,12,nomemRT_spatialint,771,.,2,english
397,2,2,6,nomemRT_spatialint,994,x,2,english
398,12,12,8,nomemRT_spatialint,703,x,2,english
399,19,17,19,nomemRT_spatialint,1894,.,2,english
400,1b,G,right,nomemRT_spatialint,3113,.,2,english
402,15,15,13,nomemRT_spatialint,1003,x,2,english
403,8,12,8,nomemRT_spatialint,695,.,2,english
404,18,14,18,nomemRT_spatialint,883,.,2,english
405,5,5,7,nomemRT_spatialint,1644,x,2,english
406,6,6,8,nomemRT_spatialint,1260,x,2,english
407,6,6,4,nomemRT_spatialint,1009,x,2,english
408,6,2,6,nomemRT_spatialint,1183,.,2,english
409,12,12,10,nomemRT_spatialint,1473,x,2,english
410,16a,G,left,nomemRT_spatialint,7747,x,2,english
412,18,18,20,nomemRT_spatialint,11273,.,2,english
413,12,12,14,nomemRT_spatialint,5219,x,2,english
414,3,5,3,nomemRT_spatialint,1408,.,2,english
415,8,6,8,nomemRT_spatialint,1653,.,2,english
416,11,7,11,nomemRT_spatialint,1457,.,2,english
417,16,16,14,nomemRT_spatialint,1662,x,2,english
418,12,14,12,nomemRT_spatialint,1585,.,2,english
419,4,4,6,nomemRT_spatialint,1495,x,2,english
420,2b,G,left,nomemRT_spatialint,8055,x,2,english
422,9,11,9,nomemRT_spatialint,1334,.,2,english
423,4,2,4,nomemRT_spatialint,1135,.,2,english
424,4,8,4,nomemRT_spatialint,988,.,2,english
425,14,12,14,nomemRT_spatialint,1450,.,2,english
426,6,8,6,nomemRT_spatialint,1149,.,2,english
427,5,5,9,nomemRT_spatialint,1516,x,2,english
428,10,6,10,nomemRT_spatialint,1134,.,2,english
429,16,16,20,nomemRT_spatialint,2553,x,2,english
430,6b,G,right,nomemRT_spatialint,2302,.,2,english
432,13,13,15,nomemRT_spatialint,1048,x,2,english
433,17,19,17,nomemRT_spatialint,1322,.,2,english
434,9,9,7,nomemRT_spatialint,1132,x,2,english
435,15,13,15,nomemRT_spatialint,1272,.,2,english
436,4,4,8,nomemRT_spatialint,950,x,2,english
437,6,4,6,nomemRT_spatialint,997,.,2,english
438,1,1,5,nomemRT_spatialint,956,x,2,english
439,17,17,15,nomemRT_spatialint,1303,x,2,english
440,7a,G,right,nomemRT_spatialint,4665,.,2,english
442,11,11,13,nomemRT_spatialint,2431,x,2,english
443,8,8,12,nomemRT_spatialint,909,x,2,english
444,2,6,2,nomemRT_spatialint,795,.,2,english
445,15,19,15,nomemRT_spatialint,893,.,2,english
446,7,7,9,nomemRT_spatialint,1018,x,2,english
447,15,15,19,nomemRT_spatialint,997,x,2,english
448,8,8,4,nomemRT_spatialint,838,x,2,english
449,16,16,12,nomemRT_spatialint,887,x,2,english
450,17a,G,right,nomemRT_spatialint,4179,.,2,english
452,2,2,4,nomemRT_spatialint,893,x,2,english
453,20,16,20,nomemRT_spatialint,1015,.,2,english
454,13,13,9,nomemRT_spatialint,763,x,2,english
455,5,9,5,nomemRT_spatialint,884,.,2,english
456,10,14,10,nomemRT_spatialint,851,.,2,english
457,20,20,16,nomemRT_spatialint,832,x,2,english
458,13,13,17,nomemRT_spatialint,799,x,2,english
459,15,17,15,nomemRT_spatialint,785,x,2,english
460,14b,G,left,nomemRT_spatialint,4964,x,2,english
462,19,19,15,nomemRT_spatialint,2667,x,2,english
463,7,5,7,nomemRT_spatialint,1174,.,2,english
464,13,11,13,nomemRT_spatialint,1585,.,2,english
465,14,14,16,nomemRT_spatialint,2495,x,2,english
466,2,4,2,nomemRT_spatialint,1316,.,2,english
467,11,11,7,nomemRT_spatialint,724,x,2,english
468,4,6,4,nomemRT_spatialint,828,.,2,english
469,7,9,7,nomemRT_spatialint,908,.,2,english
470,5a,G,right,nomemRT_spatialint,3127,.,2,english
472,7,7,3,nomemRT_spatialint,1193,x,2,english
473,13,15,13,nomemRT_spatialint,1463,.,2,english
474,13,17,13,nomemRT_spatialint,900,.,2,english
475,20,18,20,nomemRT_spatialint,1340,.,2,english
476,19,15,19,nomemRT_spatialint,1616,.,2,english
477,10,10,14,nomemRT_spatialint,1212,x,2,english
478,7,3,7,nomemRT_spatialint,872,.,2,english
479,11,13,11,nomemRT_spatialint,1392,.,2,english
480,11b,G,right,nomemRT_spatialint,2143,.,2,english
4,12,12,16,nomemRT_verbalint,2725,x,3,english
5,14,18,14,nomemRT_verbalint,1013,.,3,english
6,5,5,9,nomemRT_verbalint,640,x,3,english
7,18,16,18,nomemRT_verbalint,1502,.,3,english
8,19,17,19,nomemRT_verbalint,1470,.,3,english
9,12,12,14,nomemRT_verbalint,823,x,3,english
10,15,19,15,nomemRT_verbalint,706,.,3,english
11,12,8,12,nomemRT_verbalint,727,.,3,english
12,57327528,N,right,nomemRT_verbalint,3173,.,3,english
14,14,12,14,nomemRT_verbalint,699,x,3,english
15,13,9,13,nomemRT_verbalint,776,.,3,english
16,11,15,11,nomemRT_verbalint,584,.,3,english
17,8,8,4,nomemRT_verbalint,682,x,3,english
18,10,6,10,nomemRT_verbalint,615,.,3,english
19,5,1,5,nomemRT_verbalint,2287,.,3,english
20,5,3,5,nomemRT_verbalint,1880,.,3,english
21,18,18,20,nomemRT_verbalint,3457,.,3,english
22,53595614,N,right,nomemRT_verbalint,3749,.,3,english
24,3,1,3,nomemRT_verbalint,930,x,3,english
25,11,11,9,nomemRT_verbalint,1053,x,3,english
26,4,6,4,nomemRT_verbalint,704,.,3,english
27,10,10,6,nomemRT_verbalint,868,x,3,english
28,11,11,13,nomemRT_verbalint,1354,x,3,english
29,1,1,3,nomemRT_verbalint,1433,x,3,english
30,19,15,19,nomemRT_verbalint,814,.,3,english
31,17,17,13,nomemRT_verbalint,715,x,3,english
32,14487925,N,left,nomemRT_verbalint,2007,x,3,english
34,7,3,7,nomemRT_verbalint,1262,.,3,english
35,8,8,6,nomemRT_verbalint,931,x,3,english
36,14,10,14,nomemRT_verbalint,601,.,3,english
37,1,1,5,nomemRT_verbalint,484,x,3,english
38,17,13,17,nomemRT_verbalint,494,.,3,english
39,1,5,1,nomemRT_verbalint,562,.,3,english
40,19,19,15,nomemRT_verbalint,610,x,3,english
41,14,16,14,nomemRT_verbalint,940,.,3,english
42,63931136,N,right,nomemRT_verbalint,1139,.,3,english
44,13,13,11,nomemRT_verbalint,944,x,3,english
45,4,8,4,nomemRT_verbalint,626,.,3,english
46,14,14,16,nomemRT_verbalint,1065,.,3,english
47,5,5,7,nomemRT_verbalint,1743,x,3,english
48,4,2,4,nomemRT_verbalint,1745,.,3,english
49,3,3,7,nomemRT_verbalint,874,x,3,english
50,12,14,12,nomemRT_verbalint,1337,.,3,english
51,20,20,16,nomemRT_verbalint,636,x,3,english
52,83269642,N,left,nomemRT_verbalint,2145,x,3,english
54,10,8,10,nomemRT_verbalint,3170,.,3,english
55,11,9,11,nomemRT_verbalint,1520,.,3,english
56,20,16,20,nomemRT_verbalint,945,.,3,english
57,16,16,18,nomemRT_verbalint,2967,x,3,english
58,6,10,6,nomemRT_verbalint,553,.,3,english
59,2,6,2,nomemRT_verbalint,472,.,3,english
60,6,4,6,nomemRT_verbalint,780,x,3,english
61,15,15,11,nomemRT_verbalint,698,x,3,english
62,99968365,N,left,nomemRT_verbalint,8043,x,3,english
64,6,6,4,nomemRT_verbalint,950,x,3,english
65,19,19,17,nomemRT_verbalint,963,x,3,english
66,8,10,8,nomemRT_verbalint,788,.,3,english
67,9,7,9,nomemRT_verbalint,1763,.,3,english
68,6,8,6,nomemRT_verbalint,756,.,3,english
69,4,4,8,nomemRT_verbalint,595,x,3,english
70,7,7,11,nomemRT_verbalint,1329,x,3,english
71,15,15,17,nomemRT_verbalint,2243,x,3,english
72,91831522,N,left,nomemRT_verbalint,2045,x,3,english
74,2,2,6,nomemRT_verbalint,799,x,3,english
75,1,3,1,nomemRT_verbalint,848,.,3,english
76,3,3,5,nomemRT_verbalint,953,x,3,english
77,15,15,13,nomemRT_verbalint,896,x,3,english
78,12,12,10,nomemRT_verbalint,1954,x,3,english
79,13,13,15,nomemRT_verbalint,1338,x,3,english
80,17,15,17,nomemRT_verbalint,830,.,3,english
81,15,13,15,nomemRT_verbalint,1261,.,3,english
82,74538748,N,right,nomemRT_verbalint,1967,.,3,english
84,6,6,2,nomemRT_verbalint,701,x,3,english
85,3,7,3,nomemRT_verbalint,587,.,3,english
86,11,7,11,nomemRT_verbalint,600,.,3,english
87,10,10,8,nomemRT_verbalint,1017,.,3,english
88,16,16,12,nomemRT_verbalint,660,x,3,english
89,18,20,18,nomemRT_verbalint,977,.,3,english
90,15,17,15,nomemRT_verbalint,859,.,3,english
91,6,6,8,nomemRT_verbalint,601,x,3,english
92,69585974,N,right,nomemRT_verbalint,5799,.,3,english
94,7,7,9,nomemRT_verbalint,728,x,3,english
95,5,9,5,nomemRT_verbalint,521,.,3,english
96,17,17,19,nomemRT_verbalint,1272,x,3,english
97,4,4,6,nomemRT_verbalint,1073,x,3,english
98,12,16,12,nomemRT_verbalint,1553,.,3,english
99,13,11,13,nomemRT_verbalint,1151,.,3,english
100,8,8,10,nomemRT_verbalint,701,x,3,english
101,9,9,7,nomemRT_verbalint,1032,x,3,english
102,78162573,N,right,nomemRT_verbalint,3338,.,3,english
104,6,6,10,nomemRT_verbalint,648,x,3,english
105,15,11,15,nomemRT_verbalint,840,.,3,english
106,5,5,1,nomemRT_verbalint,698,x,3,english
107,7,7,3,nomemRT_verbalint,661,x,3,english
108,10,12,10,nomemRT_verbalint,599,.,3,english
109,11,11,7,nomemRT_verbalint,554,x,3,english
110,3,3,1,nomemRT_verbalint,769,x,3,english
111,16,20,16,nomemRT_verbalint,562,.,3,english
112,84526547,N,left,nomemRT_verbalint,2904,x,3,english
114,5,7,5,nomemRT_verbalint,634,.,3,english
115,13,13,17,nomemRT_verbalint,953,x,3,english
116,18,18,16,nomemRT_verbalint,632,x,3,english
117,14,14,10,nomemRT_verbalint,510,x,3,english
118,9,13,9,nomemRT_verbalint,907,.,3,english
119,16,12,16,nomemRT_verbalint,643,.,3,english
120,8,4,8,nomemRT_verbalint,586,.,3,english
121,3,5,3,nomemRT_verbalint,522,.,3,english
122,32514222,N,right,nomemRT_verbalint,1720,.,3,english
124,7,5,7,nomemRT_verbalint,610,.,3,english
125,17,17,15,nomemRT_verbalint,482,.,3,english
126,2,2,4,nomemRT_verbalint,1042,x,3,english
127,9,9,5,nomemRT_verbalint,659,x,3,english
128,13,13,9,nomemRT_verbalint,552,x,3,english
129,10,14,10,nomemRT_verbalint,606,.,3,english
130,8,8,12,nomemRT_verbalint,582,x,3,english
131,18,14,18,nomemRT_verbalint,569,.,3,english
132,91594938,N,left,nomemRT_verbalint,2614,x,3,english
134,18,18,14,nomemRT_verbalint,810,x,3,english
135,16,14,16,nomemRT_verbalint,642,.,3,english
136,7,11,7,nomemRT_verbalint,882,.,3,english
137,6,2,6,nomemRT_verbalint,1020,.,3,english
138,12,10,12,nomemRT_verbalint,503,.,3,english
139,4,4,2,nomemRT_verbalint,1333,x,3,english
140,13,15,13,nomemRT_verbalint,888,.,3,english
141,20,20,18,nomemRT_verbalint,568,x,3,english
142,54544199,N,left,nomemRT_verbalint,2200,x,3,english
144,14,14,18,nomemRT_verbalint,827,x,3,english
145,7,9,7,nomemRT_verbalint,699,.,3,english
146,15,15,19,nomemRT_verbalint,1270,x,3,english
147,16,18,16,nomemRT_verbalint,932,.,3,english
148,9,5,9,nomemRT_verbalint,1288,.,3,english
149,17,19,17,nomemRT_verbalint,656,.,3,english
150,10,10,14,nomemRT_verbalint,587,x,3,english
151,11,13,11,nomemRT_verbalint,604,.,3,english
152,67755493,N,right,nomemRT_verbalint,2225,.,3,english
154,14,14,12,nomemRT_verbalint,753,x,3,english
155,8,6,8,nomemRT_verbalint,895,.,3,english
156,9,9,11,nomemRT_verbalint,640,x,3,english
157,9,11,9,nomemRT_verbalint,1010,.,3,english
158,9,9,13,nomemRT_verbalint,542,x,3,english
159,12,12,8,nomemRT_verbalint,562,x,3,english
160,20,18,20,nomemRT_verbalint,675,.,3,english
161,7,7,5,nomemRT_verbalint,1081,x,3,english
162,81728193,N,left,nomemRT_verbalint,6038,x,3,english
164,11,11,15,nomemRT_verbalint,739,x,3,english
165,2,4,2,nomemRT_verbalint,566,.,3,english
166,16,16,14,nomemRT_verbalint,879,x,3,english
167,10,10,12,nomemRT_verbalint,743,x,3,english
168,16,16,20,nomemRT_verbalint,568,x,3,english
169,5,5,3,nomemRT_verbalint,640,x,3,english
170,13,17,13,nomemRT_verbalint,593,.,3,english
171,8,12,8,nomemRT_verbalint,565,.,3,english
172,57142295,N,right,nomemRT_verbalint,1869,.,3,english
175,13,11,13,nomemRT_spatialint,1629,x,3,english
176,7,7,3,nomemRT_spatialint,706,x,3,english
177,13,13,9,nomemRT_spatialint,590,x,3,english
178,1,3,1,nomemRT_spatialint,755,.,3,english
179,18,16,18,nomemRT_spatialint,704,.,3,english
180,9,9,7,nomemRT_spatialint,666,x,3,english
181,5,5,9,nomemRT_spatialint,737,x,3,english
182,16,16,14,nomemRT_spatialint,534,x,3,english
183,10a,G,right,nomemRT_spatialint,3453,.,3,english
185,8,8,10,nomemRT_spatialint,716,x,3,english
186,6,2,6,nomemRT_spatialint,657,.,3,english
187,16,18,16,nomemRT_spatialint,679,.,3,english
188,6,4,6,nomemRT_spatialint,1654,.,3,english
189,18,14,18,nomemRT_spatialint,578,.,3,english
190,6,6,2,nomemRT_spatialint,567,x,3,english
191,15,15,11,nomemRT_spatialint,488,x,3,english
192,12,12,8,nomemRT_spatialint,439,x,3,english
193,12b,G,left,nomemRT_spatialint,2369,x,3,english
195,19,19,15,nomemRT_spatialint,1188,x,3,english
196,8,6,8,nomemRT_spatialint,881,.,3,english
197,1,1,5,nomemRT_spatialint,922,x,3,english
198,10,10,14,nomemRT_spatialint,618,x,3,english
199,19,17,19,nomemRT_spatialint,677,.,3,english
200,6,6,4,nomemRT_spatialint,488,x,3,english
201,17,13,17,nomemRT_spatialint,623,.,3,english
202,17,19,17,nomemRT_spatialint,726,.,3,english
203,13b,G,left,nomemRT_spatialint,2837,x,3,english
205,15,13,15,nomemRT_spatialint,1864,.,3,english
206,3,3,1,nomemRT_spatialint,668,x,3,english
207,2,6,2,nomemRT_spatialint,658,.,3,english
208,3,3,5,nomemRT_spatialint,744,x,3,english
209,19,15,19,nomemRT_spatialint,689,.,3,english
210,13,15,13,nomemRT_spatialint,676,.,3,english
211,11,11,9,nomemRT_spatialint,2359,x,3,english
212,13,9,13,nomemRT_spatialint,665,.,3,english
213,4a,G,left,nomemRT_spatialint,3660,x,3,english
215,7,11,7,nomemRT_spatialint,814,.,3,english
216,17,17,13,nomemRT_spatialint,575,x,3,english
217,6,8,6,nomemRT_spatialint,645,.,3,english
218,17,17,15,nomemRT_spatialint,598,x,3,english
219,12,16,12,nomemRT_spatialint,542,.,3,english
220,13,13,17,nomemRT_spatialint,617,x,3,english
221,7,3,7,nomemRT_spatialint,606,.,3,english
222,17,17,19,nomemRT_spatialint,605,x,3,english
223,9a,G,right,nomemRT_spatialint,2852,.,3,english
225,11,9,11,nomemRT_spatialint,1446,.,3,english
226,5,5,7,nomemRT_spatialint,606,x,3,english
227,8,10,8,nomemRT_spatialint,767,.,3,english
228,15,11,15,nomemRT_spatialint,560,.,3,english
229,3,1,3,nomemRT_spatialint,745,x,3,english
230,6,6,8,nomemRT_spatialint,481,x,3,english
231,12,8,12,nomemRT_spatialint,898,.,3,english
232,5,1,5,nomemRT_spatialint,1349,.,3,english
233,3a,G,right,nomemRT_spatialint,2897,.,3,english
235,2,4,2,nomemRT_spatialint,673,.,3,english
236,10,10,8,nomemRT_spatialint,952,x,3,english
237,15,15,17,nomemRT_spatialint,783,x,3,english
238,4,4,6,nomemRT_spatialint,610,.,3,english
239,11,11,15,nomemRT_spatialint,574,x,3,english
240,9,5,9,nomemRT_spatialint,599,.,3,english
241,6,10,6,nomemRT_spatialint,482,.,3,english
242,20,20,18,nomemRT_spatialint,611,x,3,english
243,15b,G,left,nomemRT_spatialint,4596,x,3,english
245,14,18,14,nomemRT_spatialint,747,.,3,english
246,16,16,12,nomemRT_spatialint,581,x,3,english
247,11,15,11,nomemRT_spatialint,619,.,3,english
248,1,1,3,nomemRT_spatialint,591,x,3,english
249,14,12,14,nomemRT_spatialint,2877,.,3,english
250,11,7,11,nomemRT_spatialint,661,.,3,english
251,9,13,9,nomemRT_spatialint,530,.,3,english
252,10,6,10,nomemRT_spatialint,568,.,3,english
253,8b,G,left,nomemRT_spatialint,2322,x,3,english
255,11,13,11,nomemRT_spatialint,1577,.,3,english
256,12,12,14,nomemRT_spatialint,758,x,3,english
257,14,14,18,nomemRT_spatialint,574,x,3,english
258,5,3,5,nomemRT_spatialint,1386,x,3,english
259,1,5,1,nomemRT_spatialint,561,.,3,english
260,9,9,5,nomemRT_spatialint,562,x,3,english
261,20,20,16,nomemRT_spatialint,779,x,3,english
262,14,14,16,nomemRT_spatialint,735,x,3,english
263,1b,G,right,nomemRT_spatialint,2070,.,3,english
265,7,7,5,nomemRT_spatialint,1229,x,3,english
266,12,14,12,nomemRT_spatialint,777,.,3,english
267,15,15,13,nomemRT_spatialint,781,x,3,english
268,16,14,16,nomemRT_spatialint,1097,x,3,english
269,12,10,12,nomemRT_spatialint,1261,.,3,english
270,9,11,9,nomemRT_spatialint,632,.,3,english
271,14,10,14,nomemRT_spatialint,839,.,3,english
272,12,12,16,nomemRT_spatialint,584,x,3,english
273,16a,G,left,nomemRT_spatialint,1434,x,3,english
275,5,7,5,nomemRT_spatialint,907,.,3,english
276,5,9,5,nomemRT_spatialint,822,.,3,english
277,10,8,10,nomemRT_spatialint,590,.,3,english
278,16,16,20,nomemRT_spatialint,628,x,3,english
279,4,2,4,nomemRT_spatialint,1051,.,3,english
280,20,18,20,nomemRT_spatialint,1638,.,3,english
281,20,16,20,nomemRT_spatialint,575,.,3,english
282,16,20,16,nomemRT_spatialint,744,.,3,english
283,2b,G,left,nomemRT_spatialint,1806,x,3,english
285,3,3,7,nomemRT_spatialint,791,x,3,english
286,9,9,13,nomemRT_spatialint,630,x,3,english
287,18,20,18,nomemRT_spatialint,508,.,3,english
288,11,11,7,nomemRT_spatialint,504,x,3,english
289,11,11,13,nomemRT_spatialint,617,x,3,english
290,13,17,13,nomemRT_spatialint,572,.,3,english
291,18,18,16,nomemRT_spatialint,704,x,3,english
292,8,12,8,nomemRT_spatialint,470,.,3,english
293,6b,G,right,nomemRT_spatialint,2206,.,3,english
295,15,19,15,nomemRT_spatialint,1239,.,3,english
296,8,8,12,nomemRT_spatialint,582,x,3,english
297,15,17,15,nomemRT_spatialint,562,.,3,english
298,5,5,1,nomemRT_spatialint,979,x,3,english
299,10,14,10,nomemRT_spatialint,446,.,3,english
300,17,15,17,nomemRT_spatialint,661,.,3,english
301,4,8,4,nomemRT_spatialint,491,.,3,english
302,7,5,7,nomemRT_spatialint,641,.,3,english
303,7a,G,right,nomemRT_spatialint,1911,.,3,english
305,3,5,3,nomemRT_spatialint,1124,.,3,english
306,8,4,8,nomemRT_spatialint,508,.,3,english
307,14,14,10,nomemRT_spatialint,580,x,3,english
308,7,7,11,nomemRT_spatialint,608,x,3,english
309,19,19,17,nomemRT_spatialint,569,x,3,english
310,8,8,6,nomemRT_spatialint,514,x,3,english
311,14,16,14,nomemRT_spatialint,656,.,3,english
312,16,12,16,nomemRT_spatialint,522,.,3,english
313,17a,G,right,nomemRT_spatialint,2218,.,3,english
315,9,7,9,nomemRT_spatialint,858,x,3,english
316,2,2,4,nomemRT_spatialint,718,x,3,english
317,13,13,11,nomemRT_spatialint,534,x,3,english
318,16,16,18,nomemRT_spatialint,538,x,3,english
319,12,12,10,nomemRT_spatialint,630,x,3,english
320,10,10,6,nomemRT_spatialint,589,x,3,english
321,7,7,9,nomemRT_spatialint,1723,x,3,english
322,14,14,12,nomemRT_spatialint,796,x,3,english
323,14b,G,left,nomemRT_spatialint,1938,x,3,english
325,10,10,12,nomemRT_spatialint,2294,x,3,english
326,4,4,2,nomemRT_spatialint,599,x,3,english
327,3,7,3,nomemRT_spatialint,816,.,3,english
328,15,15,19,nomemRT_spatialint,555,x,3,english
329,8,8,4,nomemRT_spatialint,557,x,3,english
330,13,13,15,nomemRT_spatialint,700,x,3,english
331,2,2,6,nomemRT_spatialint,570,x,3,english
332,18,18,14,nomemRT_spatialint,524,x,3,english
333,5a,G,right,nomemRT_spatialint,3467,.,3,english
335,7,9,7,nomemRT_spatialint,942,.,3,english
336,18,18,20,nomemRT_spatialint,569,x,3,english
337,10,12,10,nomemRT_spatialint,687,.,3,english
338,9,9,11,nomemRT_spatialint,1183,x,3,english
339,4,4,8,nomemRT_spatialint,766,x,3,english
340,4,6,4,nomemRT_spatialint,582,.,3,english
341,5,5,3,nomemRT_spatialint,1094,.,3,english
342,6,6,10,nomemRT_spatialint,520,x,3,english
343,11b,G,right,nomemRT_spatialint,4935,.,3,english
345,9,7,9,nomemRT,2810,.,3,english
346,18,18,20,nomemRT,1250,x,3,english
347,19,17,19,nomemRT,1096,.,3,english
348,4,6,4,nomemRT,641,.,3,english
349,6,6,4,nomemRT,704,x,3,english
350,13,13,9,nomemRT,577,x,3,english
351,6,8,6,nomemRT,642,.,3,english
352,18,20,18,nomemRT,1128,.,3,english
353,5,5,1,nomemRT,543,x,3,english
354,10,8,10,nomemRT,632,.,3,english
355,14,16,14,nomemRT,755,.,3,english
356,4,4,6,nomemRT,703,x,3,english
357,3,1,3,nomemRT,824,.,3,english
358,7,9,7,nomemRT,593,.,3,english
359,3,3,1,nomemRT,565,x,3,english
360,8,8,4,nomemRT,587,x,3,english
361,15,15,11,nomemRT,487,x,3,english
362,5,3,5,nomemRT,1085,.,3,english
363,17,19,17,nomemRT,924,.,3,english
364,17,17,13,nomemRT,1098,x,3,english
365,5,5,3,nomemRT,763,x,3,english
366,16,12,16,nomemRT,546,.,3,english
367,16,16,12,nomemRT,563,x,3,english
368,14,12,14,nomemRT,537,.,3,english
369,10,10,6,nomemRT,1130,x,3,english
370,16,16,14,nomemRT,529,x,3,english
371,8,6,8,nomemRT,1543,.,3,english
372,3,3,5,nomemRT,1416,x,3,english
373,18,16,18,nomemRT,1378,.,3,english
374,8,8,6,nomemRT,619,x,3,english
375,6,6,8,nomemRT,1364,x,3,english
376,6,2,6,nomemRT,635,.,3,english
377,18,18,14,nomemRT,542,x,3,english
378,15,13,15,nomemRT,567,.,3,english
379,2,2,4,nomemRT,829,x,3,english
380,10,10,14,nomemRT,609,x,3,english
381,11,9,11,nomemRT,528,.,3,english
382,12,14,12,nomemRT,982,.,3,english
383,15,15,13,nomemRT,647,x,3,english
384,17,17,19,nomemRT,1021,x,3,english
385,9,13,9,nomemRT,751,.,3,english
386,17,13,17,nomemRT,626,.,3,english
387,15,15,17,nomemRT,763,x,3,english
388,4,8,4,nomemRT,482,.,3,english
389,9,5,9,nomemRT,808,.,3,english
390,7,5,7,nomemRT,1270,.,3,english
391,16,16,18,nomemRT,1514,x,3,english
392,13,15,13,nomemRT,758,.,3,english
393,13,13,17,nomemRT,554,x,3,english
394,1,3,1,nomemRT,590,.,3,english
395,2,6,2,nomemRT,473,.,3,english
396,5,9,5,nomemRT,493,.,3,english
397,14,18,14,nomemRT,667,.,3,english
398,5,7,5,nomemRT,895,.,3,english
399,12,12,14,nomemRT,1120,x,3,english
400,11,7,11,nomemRT,743,.,3,english
401,8,4,8,nomemRT,808,.,3,english
402,10,10,8,nomemRT,678,x,3,english
403,5,5,7,nomemRT,818,x,3,english
404,16,14,16,nomemRT,811,.,3,english
405,6,6,10,nomemRT,577,x,3,english
406,13,17,13,nomemRT,554,.,3,english
407,9,11,9,nomemRT,510,.,3,english
408,9,9,7,nomemRT,610,x,3,english
409,5,1,5,nomemRT,1192,.,3,english
410,3,3,7,nomemRT,620,x,3,english
411,10,14,10,nomemRT,517,.,3,english
412,1,1,5,nomemRT,473,x,3,english
413,4,4,8,nomemRT,524,x,3,english
414,19,15,19,nomemRT,587,.,3,english
415,12,10,12,nomemRT,718,.,3,english
416,6,6,2,nomemRT,626,x,3,english
417,10,12,10,nomemRT,531,.,3,english
418,20,18,20,nomemRT,697,.,3,english
419,16,18,16,nomemRT,786,.,3,english
420,2,2,6,nomemRT,531,x,3,english
421,20,16,20,nomemRT,562,.,3,english
422,14,14,10,nomemRT,488,x,3,english
423,2,4,2,nomemRT,830,.,3,english
424,1,1,3,nomemRT,514,x,3,english
425,11,15,11,nomemRT,518,.,3,english
426,16,20,16,nomemRT,537,.,3,english
427,16,16,20,nomemRT,514,x,3,english
428,7,7,5,nomemRT,662,x,3,english
429,7,7,3,nomemRT,631,x,3,english
430,11,13,11,nomemRT,627,.,3,english
431,15,17,15,nomemRT,542,.,3,english
432,11,11,15,nomemRT,455,x,3,english
433,12,16,12,nomemRT,504,.,3,english
434,7,3,7,nomemRT,385,x,3,english
435,4,4,2,nomemRT,562,x,3,english
436,12,8,12,nomemRT,593,.,3,english
437,12,12,8,nomemRT,572,x,3,english
438,17,15,17,nomemRT,635,.,3,english
439,10,10,12,nomemRT,878,x,3,english
440,13,11,13,nomemRT,522,.,3,english
441,11,11,7,nomemRT,472,x,3,english
442,15,15,19,nomemRT,1228,x,3,english
443,11,11,9,nomemRT,448,x,3,english
444,8,10,8,nomemRT,702,.,3,english
445,8,8,10,nomemRT,607,x,3,english
446,7,7,11,nomemRT,462,x,3,english
447,14,14,16,nomemRT,567,x,3,english
448,14,14,18,nomemRT,541,x,3,english
449,11,11,13,nomemRT,950,x,3,english
450,9,9,5,nomemRT,474,x,3,english
451,7,11,7,nomemRT,1037,.,3,english
452,14,10,14,nomemRT,649,.,3,english
453,5,5,9,nomemRT,559,x,3,english
454,3,5,3,nomemRT,835,.,3,english
455,17,17,15,nomemRT,503,x,3,english
456,15,11,15,nomemRT,592,.,3,english
457,14,14,12,nomemRT,516,x,3,english
458,6,10,6,nomemRT,639,.,3,english
459,13,13,15,nomemRT,1275,x,3,english
460,15,19,15,nomemRT,607,.,3,english
461,7,7,9,nomemRT,533,x,3,english
462,13,9,13,nomemRT,574,.,3,english
463,19,19,15,nomemRT,535,x,3,english
464,12,12,10,nomemRT,488,x,3,english
465,12,12,16,nomemRT,878,x,3,english
466,9,9,13,nomemRT,434,x,3,english
467,13,13,11,nomemRT,854,x,3,english
468,20,20,18,nomemRT,1071,x,3,english
469,8,12,8,nomemRT,667,.,3,english
470,3,7,3,nomemRT,566,.,3,english
471,6,4,6,nomemRT,2445,.,3,english
472,19,19,17,nomemRT,1244,x,3,english
473,9,9,11,nomemRT,930,x,3,english
474,20,20,16,nomemRT,673,x,3,english
475,18,14,18,nomemRT,613,.,3,english
476,4,2,4,nomemRT,1699,.,3,english
477,18,18,16,nomemRT,684,x,3,english
478,8,8,12,nomemRT,651,x,3,english
479,10,6,10,nomemRT,697,.,3,english
480,1,5,1,nomemRT,578,.,3,english
4,6,2,6,nomemRT_verbalint,6203,.,4,english
5,17,17,13,nomemRT_verbalint,1431,x,4,english
6,9,9,5,nomemRT_verbalint,948,x,4,english
7,17,13,17,nomemRT_verbalint,720,.,4,english
8,4,8,4,nomemRT_verbalint,1042,.,4,english
9,19,19,17,nomemRT_verbalint,1301,x,4,english
10,15,13,15,nomemRT_verbalint,1071,.,4,english
11,7,3,7,nomemRT_verbalint,727,.,4,english
12,57327528,N,right,nomemRT_verbalint,2661,.,4,english
14,18,16,18,nomemRT_verbalint,1451,.,4,english
15,6,4,6,nomemRT_verbalint,698,.,4,english
16,10,14,10,nomemRT_verbalint,867,.,4,english
17,15,17,15,nomemRT_verbalint,1107,.,4,english
18,13,13,11,nomemRT_verbalint,768,x,4,english
19,10,10,8,nomemRT_verbalint,733,x,4,english
20,5,5,3,nomemRT_verbalint,622,x,4,english
21,8,4,8,nomemRT_verbalint,456,.,4,english
22,53595614,N,right,nomemRT_verbalint,3313,.,4,english
24,5,9,5,nomemRT_verbalint,800,.,4,english
25,11,7,11,nomemRT_verbalint,546,.,4,english
26,1,5,1,nomemRT_verbalint,598,.,4,english
27,15,19,15,nomemRT_verbalint,542,.,4,english
28,6,6,10,nomemRT_verbalint,537,.,4,english
29,16,16,14,nomemRT_verbalint,1134,x,4,english
30,4,4,6,nomemRT_verbalint,1240,x,4,english
31,20,18,20,nomemRT_verbalint,1017,.,4,english
32,14487925,N,left,nomemRT_verbalint,3699,x,4,english
34,10,8,10,nomemRT_verbalint,816,.,4,english
35,15,15,13,nomemRT_verbalint,722,x,4,english
36,13,13,17,nomemRT_verbalint,770,x,4,english
37,13,17,13,nomemRT_verbalint,616,.,4,english
38,14,14,12,nomemRT_verbalint,562,x,4,english
39,16,14,16,nomemRT_verbalint,582,.,4,english
40,3,7,3,nomemRT_verbalint,769,.,4,english
41,3,3,1,nomemRT_verbalint,650,x,4,english
42,63931136,N,right,nomemRT_verbalint,3006,.,4,english
44,10,10,14,nomemRT_verbalint,770,x,4,english
45,2,6,2,nomemRT_verbalint,563,.,4,english
46,16,12,16,nomemRT_verbalint,579,.,4,english
47,7,7,3,nomemRT_verbalint,448,x,4,english
48,3,5,3,nomemRT_verbalint,479,.,4,english
49,7,7,11,nomemRT_verbalint,553,x,4,english
50,11,11,15,nomemRT_verbalint,544,x,4,english
51,6,6,8,nomemRT_verbalint,515,x,4,english
52,83269642,N,left,nomemRT_verbalint,2357,x,4,english
54,9,7,9,nomemRT_verbalint,989,.,4,english
55,3,1,3,nomemRT_verbalint,652,.,4,english
56,5,5,1,nomemRT_verbalint,660,x,4,english
57,12,12,16,nomemRT_verbalint,592,x,4,english
58,5,5,9,nomemRT_verbalint,519,x,4,english
59,14,18,14,nomemRT_verbalint,605,.,4,english
60,18,20,18,nomemRT_verbalint,1005,.,4,english
61,11,9,11,nomemRT_verbalint,831,.,4,english
62,99968365,N,left,nomemRT_verbalint,3155,x,4,english
64,9,13,9,nomemRT_verbalint,842,.,4,english
65,8,8,10,nomemRT_verbalint,713,x,4,english
66,17,15,17,nomemRT_verbalint,648,.,4,english
67,7,11,7,nomemRT_verbalint,554,.,4,english
68,10,6,10,nomemRT_verbalint,535,.,4,english
69,2,2,6,nomemRT_verbalint,580,x,4,english
70,2,4,2,nomemRT_verbalint,720,.,4,english
71,19,17,19,nomemRT_verbalint,721,.,4,english
72,91831522,N,left,nomemRT_verbalint,6501,x,4,english
74,5,5,7,nomemRT_verbalint,1238,x,4,english
75,4,6,4,nomemRT_verbalint,620,.,4,english
76,2,2,4,nomemRT_verbalint,632,x,4,english
77,1,3,1,nomemRT_verbalint,534,.,4,english
78,14,16,14,nomemRT_verbalint,600,.,4,english
79,8,12,8,nomemRT_verbalint,579,.,4,english
80,14,14,10,nomemRT_verbalint,548,x,4,english
81,11,11,13,nomemRT_verbalint,756,x,4,english
82,74538748,N,right,nomemRT_verbalint,2663,.,4,english
84,15,15,19,nomemRT_verbalint,835,x,4,english
85,13,13,9,nomemRT_verbalint,841,x,4,english
86,16,16,12,nomemRT_verbalint,539,x,4,english
87,16,16,18,nomemRT_verbalint,630,x,4,english
88,5,1,5,nomemRT_verbalint,708,.,4,english
89,7,9,7,nomemRT_verbalint,778,.,4,english
90,5,3,5,nomemRT_verbalint,940,.,4,english
91,12,14,12,nomemRT_verbalint,611,.,4,english
92,69585974,N,right,nomemRT_verbalint,6113,.,4,english
94,19,19,15,nomemRT_verbalint,792,x,4,english
95,12,12,10,nomemRT_verbalint,559,x,4,english
96,18,18,16,nomemRT_verbalint,518,x,4,english
97,20,16,20,nomemRT_verbalint,544,.,4,english
98,12,8,12,nomemRT_verbalint,573,.,4,english
99,16,18,16,nomemRT_verbalint,713,.,4,english
100,17,17,15,nomemRT_verbalint,655,x,4,english
101,10,10,6,nomemRT_verbalint,587,x,4,english
102,78162573,N,right,nomemRT_verbalint,3419,.,4,english
104,11,11,9,nomemRT_verbalint,771,x,4,english
105,14,10,14,nomemRT_verbalint,746,.,4,english
106,12,16,12,nomemRT_verbalint,697,.,4,english
107,11,13,11,nomemRT_verbalint,806,.,4,english
108,20,20,16,nomemRT_verbalint,589,x,4,english
109,18,14,18,nomemRT_verbalint,788,.,4,english
110,7,7,9,nomemRT_verbalint,636,x,4,english
111,14,14,16,nomemRT_verbalint,762,x,4,english
112,84526547,N,left,nomemRT_verbalint,4208,x,4,english
114,8,8,4,nomemRT_verbalint,609,x,4,english
115,6,6,4,nomemRT_verbalint,475,x,4,english
116,8,8,12,nomemRT_verbalint,481,x,4,english
117,1,1,5,nomemRT_verbalint,482,x,4,english
118,3,3,5,nomemRT_verbalint,515,x,4,english
119,6,6,2,nomemRT_verbalint,473,x,4,english
120,7,5,7,nomemRT_verbalint,774,.,4,english
121,15,11,15,nomemRT_verbalint,595,.,4,english
122,32514222,N,right,nomemRT_verbalint,2799,.,4,english
124,5,7,5,nomemRT_verbalint,894,.,4,english
125,9,11,9,nomemRT_verbalint,826,.,4,english
126,12,12,14,nomemRT_verbalint,957,x,4,english
127,6,10,6,nomemRT_verbalint,600,.,4,english
128,8,6,8,nomemRT_verbalint,777,.,4,english
129,4,4,2,nomemRT_verbalint,902,x,4,english
130,13,9,13,nomemRT_verbalint,473,.,4,english
131,7,7,5,nomemRT_verbalint,576,x,4,english
132,91594938,N,left,nomemRT_verbalint,2734,x,4,english
134,16,16,20,nomemRT_verbalint,947,x,4,english
135,4,4,8,nomemRT_verbalint,560,x,4,english
136,11,15,11,nomemRT_verbalint,760,.,4,english
137,12,10,12,nomemRT_verbalint,539,.,4,english
138,20,20,18,nomemRT_verbalint,652,x,4,english
139,8,8,6,nomemRT_verbalint,698,x,4,english
140,13,11,13,nomemRT_verbalint,949,.,4,english
141,9,5,9,nomemRT_verbalint,571,.,4,english
142,54544199,N,left,nomemRT_verbalint,6556,x,4,english
144,13,13,15,nomemRT_verbalint,1500,x,4,english
145,19,15,19,nomemRT_verbalint,768,.,4,english
146,9,9,11,nomemRT_verbalint,673,x,4,english
147,15,15,11,nomemRT_verbalint,640,x,4,english
148,18,18,20,nomemRT_verbalint,825,x,4,english
149,9,9,7,nomemRT_verbalint,559,x,4,english
150,10,10,12,nomemRT_verbalint,535,x,4,english
151,4,2,4,nomemRT_verbalint,868,.,4,english
152,67755493,N,right,nomemRT_verbalint,3744,.,4,english
154,12,12,8,nomemRT_verbalint,726,x,4,english
155,3,3,7,nomemRT_verbalint,533,x,4,english
156,6,8,6,nomemRT_verbalint,816,.,4,english
157,16,20,16,nomemRT_verbalint,589,.,4,english
158,1,1,3,nomemRT_verbalint,1083,x,4,english
159,8,10,8,nomemRT_verbalint,677,.,4,english
160,17,19,17,nomemRT_verbalint,659,.,4,english
161,14,14,18,nomemRT_verbalint,549,x,4,english
162,81728193,N,left,nomemRT_verbalint,5113,x,4,english
164,15,15,17,nomemRT_verbalint,1258,.,4,english
165,9,9,13,nomemRT_verbalint,677,x,4,english
166,10,12,10,nomemRT_verbalint,587,.,4,english
167,17,17,19,nomemRT_verbalint,681,x,4,english
168,18,18,14,nomemRT_verbalint,713,x,4,english
169,13,15,13,nomemRT_verbalint,761,.,4,english
170,14,12,14,nomemRT_verbalint,1299,.,4,english
171,11,11,7,nomemRT_verbalint,615,x,4,english
172,57142295,N,right,nomemRT_verbalint,4023,.,4,english
174,18,18,14,nomemRT,857,x,4,english
175,4,4,6,nomemRT,735,x,4,english
176,8,8,6,nomemRT,638,x,4,english
177,13,11,13,nomemRT,1039,.,4,english
178,3,3,5,nomemRT,755,x,4,english
179,11,11,9,nomemRT,1420,x,4,english
180,4,4,8,nomemRT,573,x,4,english
181,15,15,17,nomemRT,716,x,4,english
182,6,6,8,nomemRT,885,x,4,english
183,18,20,18,nomemRT,1201,.,4,english
184,7,7,9,nomemRT,773,x,4,english
185,3,7,3,nomemRT,515,.,4,english
186,6,4,6,nomemRT,663,.,4,english
187,10,12,10,nomemRT,544,.,4,english
188,9,11,9,nomemRT,574,.,4,english
189,13,13,17,nomemRT,567,x,4,english
190,2,6,2,nomemRT,494,.,4,english
191,2,2,6,nomemRT,508,x,4,english
192,8,12,8,nomemRT,448,.,4,english
193,9,7,9,nomemRT,678,.,4,english
194,17,17,15,nomemRT,770,.,4,english
195,11,7,11,nomemRT,641,.,4,english
196,12,14,12,nomemRT,591,.,4,english
197,11,13,11,nomemRT,568,.,4,english
198,17,13,17,nomemRT,630,.,4,english
199,9,9,11,nomemRT,983,x,4,english
200,17,17,19,nomemRT,857,x,4,english
201,11,15,11,nomemRT,586,.,4,english
202,12,10,12,nomemRT,771,.,4,english
203,17,15,17,nomemRT,561,.,4,english
204,14,10,14,nomemRT,480,.,4,english
205,5,5,1,nomemRT,500,x,4,english
206,6,6,4,nomemRT,546,x,4,english
207,15,15,13,nomemRT,1123,x,4,english
208,19,17,19,nomemRT,738,.,4,english
209,8,4,8,nomemRT,515,.,4,english
210,5,5,7,nomemRT,750,x,4,english
211,15,15,11,nomemRT,698,x,4,english
212,18,18,20,nomemRT,603,x,4,english
213,12,12,8,nomemRT,538,x,4,english
214,7,7,3,nomemRT,491,x,4,english
215,16,14,16,nomemRT,961,.,4,english
216,14,12,14,nomemRT,872,.,4,english
217,12,12,16,nomemRT,580,x,4,english
218,8,6,8,nomemRT,765,.,4,english
219,7,7,5,nomemRT,563,x,4,english
220,4,4,2,nomemRT,634,x,4,english
221,7,3,7,nomemRT,550,.,4,english
222,10,10,12,nomemRT,761,x,4,english
223,8,10,8,nomemRT,664,.,4,english
224,20,18,20,nomemRT,1001,.,4,english
225,8,8,4,nomemRT,552,x,4,english
226,4,6,4,nomemRT,603,.,4,english
227,11,11,13,nomemRT,594,x,4,english
228,6,6,10,nomemRT,549,x,4,english
229,18,18,16,nomemRT,839,.,4,english
230,16,20,16,nomemRT,682,.,4,english
231,16,12,16,nomemRT,833,.,4,english
232,13,17,13,nomemRT,565,.,4,english
233,1,5,1,nomemRT,595,.,4,english
234,5,5,3,nomemRT,575,x,4,english
235,14,14,10,nomemRT,656,x,4,english
236,19,15,19,nomemRT,553,.,4,english
237,16,18,16,nomemRT,605,.,4,english
238,15,15,19,nomemRT,555,x,4,english
239,13,13,9,nomemRT,583,x,4,english
240,12,12,10,nomemRT,703,x,4,english
241,13,13,11,nomemRT,945,x,4,english
242,2,2,4,nomemRT,1307,x,4,english
243,2,4,2,nomemRT,863,.,4,english
244,10,14,10,nomemRT,616,.,4,english
245,1,1,3,nomemRT,1401,x,4,english
246,13,15,13,nomemRT,1192,.,4,english
247,4,8,4,nomemRT,812,.,4,english
248,9,9,13,nomemRT,682,x,4,english
249,17,17,13,nomemRT,904,x,4,english
250,5,9,5,nomemRT,698,.,4,english
251,4,2,4,nomemRT,658,.,4,english
252,7,11,7,nomemRT,523,.,4,english
253,1,1,5,nomemRT,690,x,4,english
254,12,12,14,nomemRT,904,x,4,english
255,10,6,10,nomemRT,745,.,4,english
256,20,16,20,nomemRT,1050,.,4,english
257,13,9,13,nomemRT,753,.,4,english
258,14,14,12,nomemRT,854,x,4,english
259,1,3,1,nomemRT,1542,.,4,english
260,9,5,9,nomemRT,711,.,4,english
261,8,8,12,nomemRT,691,x,4,english
262,16,16,18,nomemRT,1450,x,4,english
263,7,7,11,nomemRT,680,x,4,english
264,15,13,15,nomemRT,1327,.,4,english
265,14,14,18,nomemRT,702,x,4,english
266,10,10,14,nomemRT,607,x,4,english
267,15,17,15,nomemRT,693,.,4,english
268,19,19,15,nomemRT,614,x,4,english
269,6,6,2,nomemRT,552,x,4,english
270,5,3,5,nomemRT,764,.,4,english
271,11,11,15,nomemRT,506,x,4,english
272,5,7,5,nomemRT,659,.,4,english
273,13,13,15,nomemRT,613,x,4,english
274,5,5,9,nomemRT,578,x,4,english
275,3,3,1,nomemRT,555,x,4,english
276,14,18,14,nomemRT,559,.,4,english
277,9,13,9,nomemRT,564,.,4,english
278,16,16,20,nomemRT,538,x,4,english
279,15,11,15,nomemRT,539,.,4,english
280,5,1,5,nomemRT,515,.,4,english
281,14,14,16,nomemRT,744,x,4,english
282,20,20,16,nomemRT,505,x,4,english
283,20,20,18,nomemRT,634,x,4,english
284,12,8,12,nomemRT,494,.,4,english
285,8,8,10,nomemRT,895,x,4,english
286,14,16,14,nomemRT,552,.,4,english
287,7,9,7,nomemRT,628,.,4,english
288,6,8,6,nomemRT,544,.,4,english
289,10,10,8,nomemRT,657,x,4,english
290,3,1,3,nomemRT,762,.,4,english
291,3,3,7,nomemRT,608,x,4,english
292,19,19,17,nomemRT,999,x,4,english
293,18,16,18,nomemRT,667,.,4,english
294,11,11,7,nomemRT,564,x,4,english
295,6,2,6,nomemRT,570,.,4,english
296,9,9,7,nomemRT,536,x,4,english
297,12,16,12,nomemRT,674,.,4,english
298,17,19,17,nomemRT,813,.,4,english
299,16,16,12,nomemRT,502,x,4,english
300,7,5,7,nomemRT,480,.,4,english
301,9,9,5,nomemRT,498,x,4,english
302,6,10,6,nomemRT,484,.,4,english
303,15,19,15,nomemRT,507,.,4,english
304,10,8,10,nomemRT,516,.,4,english
305,11,9,11,nomemRT,511,.,4,english
306,3,5,3,nomemRT,907,.,4,english
307,16,16,14,nomemRT,1447,x,4,english
308,18,14,18,nomemRT,750,.,4,english
309,10,10,6,nomemRT,610,x,4,english
312,13,9,13,nomemRT_spatialint,1479,.,4,english
313,3,3,7,nomemRT_spatialint,793,x,4,english
314,1,3,1,nomemRT_spatialint,679,.,4,english
315,16,16,20,nomemRT_spatialint,600,x,4,english
316,4,4,2,nomemRT_spatialint,1193,x,4,english
317,10,10,8,nomemRT_spatialint,1144,x,4,english
318,3,3,5,nomemRT_spatialint,637,x,4,english
319,16,20,16,nomemRT_spatialint,568,.,4,english
320,10a,G,right,nomemRT_spatialint,3583,.,4,english
322,11,15,11,nomemRT_spatialint,910,.,4,english
323,9,9,5,nomemRT_spatialint,547,x,4,english
324,3,1,3,nomemRT_spatialint,846,.,4,english
325,17,13,17,nomemRT_spatialint,555,.,4,english
326,7,7,9,nomemRT_spatialint,769,x,4,english
327,15,17,15,nomemRT_spatialint,545,.,4,english
328,5,5,1,nomemRT_spatialint,496,x,4,english
329,8,8,10,nomemRT_spatialint,546,x,4,english
330,12b,G,left,nomemRT_spatialint,3478,x,4,english
332,9,9,7,nomemRT_spatialint,1094,x,4,english
333,3,5,3,nomemRT_spatialint,831,.,4,english
334,14,16,14,nomemRT_spatialint,548,.,4,english
335,18,18,14,nomemRT_spatialint,916,x,4,english
336,8,12,8,nomemRT_spatialint,495,.,4,english
337,7,5,7,nomemRT_spatialint,510,.,4,english
338,18,14,18,nomemRT_spatialint,524,.,4,english
339,7,7,3,nomemRT_spatialint,542,x,4,english
340,13b,G,left,nomemRT_spatialint,3960,x,4,english
342,10,10,14,nomemRT_spatialint,724,x,4,english
343,8,8,12,nomemRT_spatialint,718,x,4,english
344,15,19,15,nomemRT_spatialint,815,.,4,english
345,3,7,3,nomemRT_spatialint,707,.,4,english
346,12,8,12,nomemRT_spatialint,570,.,4,english
347,2,4,2,nomemRT_spatialint,533,.,4,english
348,13,15,13,nomemRT_spatialint,536,.,4,english
349,9,9,11,nomemRT_spatialint,661,x,4,english
350,4a,G,left,nomemRT_spatialint,3575,x,4,english
352,14,12,14,nomemRT_spatialint,1022,.,4,english
353,2,2,6,nomemRT_spatialint,626,x,4,english
354,3,3,1,nomemRT_spatialint,935,x,4,english
355,4,8,4,nomemRT_spatialint,557,.,4,english
356,12,12,14,nomemRT_spatialint,677,x,4,english
357,14,18,14,nomemRT_spatialint,646,.,4,english
358,6,6,8,nomemRT_spatialint,600,x,4,english
359,11,13,11,nomemRT_spatialint,537,.,4,english
360,9a,G,right,nomemRT_spatialint,3747,.,4,english
362,20,16,20,nomemRT_spatialint,888,.,4,english
363,6,6,10,nomemRT_spatialint,642,x,4,english
364,5,7,5,nomemRT_spatialint,554,.,4,english
365,14,10,14,nomemRT_spatialint,504,.,4,english
366,16,16,14,nomemRT_spatialint,1150,x,4,english
367,17,17,15,nomemRT_spatialint,1199,x,4,english
368,8,8,4,nomemRT_spatialint,536,x,4,english
369,13,11,13,nomemRT_spatialint,580,.,4,english
370,3a,G,right,nomemRT_spatialint,2902,.,4,english
372,17,19,17,nomemRT_spatialint,708,.,4,english
373,18,16,18,nomemRT_spatialint,873,.,4,english
374,7,7,5,nomemRT_spatialint,984,x,4,english
375,18,18,20,nomemRT_spatialint,877,x,4,english
376,12,16,12,nomemRT_spatialint,550,.,4,english
377,15,15,19,nomemRT_spatialint,550,x,4,english
378,11,11,15,nomemRT_spatialint,538,x,4,english
379,2,6,2,nomemRT_spatialint,472,.,4,english
380,15b,G,left,nomemRT_spatialint,2340,x,4,english
382,10,12,10,nomemRT_spatialint,594,.,4,english
383,16,16,18,nomemRT_spatialint,627,x,4,english
384,14,14,18,nomemRT_spatialint,589,x,4,english
385,15,15,17,nomemRT_spatialint,624,x,4,english
386,16,12,16,nomemRT_spatialint,654,.,4,english
387,6,6,4,nomemRT_spatialint,853,x,4,english
388,14,14,10,nomemRT_spatialint,542,x,4,english
389,1,1,5,nomemRT_spatialint,609,x,4,english
390,8b,G,left,nomemRT_spatialint,4702,.,4,english
392,6,10,6,nomemRT_spatialint,734,.,4,english
393,13,13,11,nomemRT_spatialint,1408,x,4,english
394,9,9,13,nomemRT_spatialint,576,x,4,english
395,12,14,12,nomemRT_spatialint,565,.,4,english
396,4,2,4,nomemRT_spatialint,717,.,4,english
397,8,8,6,nomemRT_spatialint,591,x,4,english
398,20,20,18,nomemRT_spatialint,790,x,4,english
399,16,16,12,nomemRT_spatialint,508,x,4,english
400,1b,G,right,nomemRT_spatialint,3680,.,4,english
402,5,1,5,nomemRT_spatialint,956,.,4,english
403,13,17,13,nomemRT_spatialint,623,.,4,english
404,9,13,9,nomemRT_spatialint,518,.,4,english
405,11,11,9,nomemRT_spatialint,1110,x,4,english
406,9,11,9,nomemRT_spatialint,558,.,4,english
407,19,19,15,nomemRT_spatialint,566,x,4,english
408,7,7,11,nomemRT_spatialint,591,x,4,english
409,8,10,8,nomemRT_spatialint,534,.,4,english
410,16a,G,left,nomemRT_spatialint,2569,x,4,english
412,17,17,19,nomemRT_spatialint,941,x,4,english
413,19,19,17,nomemRT_spatialint,1130,x,4,english
414,8,4,8,nomemRT_spatialint,560,.,4,english
415,13,13,15,nomemRT_spatialint,546,x,4,english
416,6,4,6,nomemRT_spatialint,563,.,4,english
417,11,9,11,nomemRT_spatialint,699,.,4,english
418,15,13,15,nomemRT_spatialint,918,.,4,english
419,11,11,7,nomemRT_spatialint,553,x,4,english
420,2b,G,left,nomemRT_spatialint,1995,x,4,english
422,15,15,11,nomemRT_spatialint,694,x,4,english
423,5,9,5,nomemRT_spatialint,496,.,4,english
424,13,13,9,nomemRT_spatialint,474,x,4,english
425,19,15,19,nomemRT_spatialint,546,.,4,english
426,15,11,15,nomemRT_spatialint,559,.,4,english
427,17,17,13,nomemRT_spatialint,457,x,4,english
428,5,5,9,nomemRT_spatialint,629,x,4,english
429,5,5,3,nomemRT_spatialint,516,x,4,english
430,6b,G,right,nomemRT_spatialint,2616,.,4,english
432,4,6,4,nomemRT_spatialint,702,.,4,english
433,7,9,7,nomemRT_spatialint,611,.,4,english
434,20,20,16,nomemRT_spatialint,838,x,4,english
435,5,5,7,nomemRT_spatialint,720,x,4,english
436,8,6,8,nomemRT_spatialint,673,.,4,english
437,6,6,2,nomemRT_spatialint,584,x,4,english
438,19,17,19,nomemRT_spatialint,693,.,4,english
439,12,10,12,nomemRT_spatialint,545,.,4,english
440,7a,G,right,nomemRT_spatialint,1550,.,4,english
442,12,12,16,nomemRT_spatialint,1081,x,4,english
443,20,18,20,nomemRT_spatialint,1158,.,4,english
444,10,10,6,nomemRT_spatialint,592,x,4,english
445,17,15,17,nomemRT_spatialint,3007,.,4,english
446,7,11,7,nomemRT_spatialint,808,.,4,english
447,18,20,18,nomemRT_spatialint,755,.,4,english
448,10,8,10,nomemRT_spatialint,976,.,4,english
449,16,14,16,nomemRT_spatialint,1012,.,4,english
450,17a,G,right,nomemRT_spatialint,2326,.,4,english
452,18,18,16,nomemRT_spatialint,788,.,4,english
453,10,10,12,nomemRT_spatialint,736,x,4,english
454,1,5,1,nomemRT_spatialint,635,.,4,english
455,10,14,10,nomemRT_spatialint,554,.,4,english
456,6,8,6,nomemRT_spatialint,727,.,4,english
457,11,7,11,nomemRT_spatialint,545,.,4,english
458,9,5,9,nomemRT_spatialint,552,.,4,english
459,16,18,16,nomemRT_spatialint,606,.,4,english
460,14b,G,left,nomemRT_spatialint,2247,x,4,english
462,4,4,6,nomemRT_spatialint,1979,x,4,english
463,6,2,6,nomemRT_spatialint,626,.,4,english
464,12,12,10,nomemRT_spatialint,640,.,4,english
465,13,13,17,nomemRT_spatialint,561,x,4,english
466,12,12,8,nomemRT_spatialint,522,x,4,english
467,4,4,8,nomemRT_spatialint,554,x,4,english
468,9,7,9,nomemRT_spatialint,775,.,4,english
469,5,3,5,nomemRT_spatialint,1110,.,4,english
470,5a,G,right,nomemRT_spatialint,2171,.,4,english
472,10,6,10,nomemRT_spatialint,910,.,4,english
473,2,2,4,nomemRT_spatialint,1278,x,4,english
474,14,14,12,nomemRT_spatialint,1430,x,4,english
475,14,14,16,nomemRT_spatialint,830,x,4,english
476,1,1,3,nomemRT_spatialint,701,x,4,english
477,11,11,13,nomemRT_spatialint,664,x,4,english
478,7,3,7,nomemRT_spatialint,614,.,4,english
479,15,15,13,nomemRT_spatialint,1459,x,4,english
480,11b,G,right,nomemRT_spatialint,2015,.,4,english
3,15,11,15,nomemRT,1500,.,5,english
4,17,19,17,nomemRT,2085,.,5,english
5,4,2,4,nomemRT,2005,.,5,english
6,10,10,12,nomemRT,3284,x,5,english
7,5,5,3,nomemRT,802,.,5,english
8,11,13,11,nomemRT,1303,.,5,english
9,4,4,6,nomemRT,1477,x,5,english
10,11,9,11,nomemRT,1302,.,5,english
11,17,17,15,nomemRT,640,x,5,english
12,15,15,13,nomemRT,1177,x,5,english
13,8,8,6,nomemRT,1002,.,5,english
14,9,9,13,nomemRT,814,x,5,english
15,16,16,14,nomemRT,1524,x,5,english
16,12,12,8,nomemRT,808,x,5,english
17,15,19,15,nomemRT,887,.,5,english
18,18,20,18,nomemRT,1362,.,5,english
19,4,6,4,nomemRT,1462,.,5,english
20,2,4,2,nomemRT,1221,.,5,english
21,8,8,12,nomemRT,763,x,5,english
22,18,14,18,nomemRT,746,.,5,english
23,5,5,9,nomemRT,787,x,5,english
24,10,8,10,nomemRT,1511,.,5,english
25,17,17,13,nomemRT,659,x,5,english
26,5,5,7,nomemRT,1684,x,5,english
27,11,11,7,nomemRT,762,x,5,english
28,6,6,2,nomemRT,705,x,5,english
29,11,11,9,nomemRT,2194,x,5,english
30,19,15,19,nomemRT,886,.,5,english
31,17,13,17,nomemRT,852,.,5,english
32,8,4,8,nomemRT,1075,.,5,english
33,6,4,6,nomemRT,1332,.,5,english
34,18,16,18,nomemRT,2243,.,5,english
35,16,14,16,nomemRT,2386,.,5,english
36,9,7,9,nomemRT,1478,.,5,english
37,14,14,12,nomemRT,898,x,5,english
38,1,1,5,nomemRT,1171,x,5,english
39,12,12,14,nomemRT,1882,x,5,english
40,3,3,7,nomemRT,656,x,5,english
41,11,15,11,nomemRT,817,.,5,english
42,12,8,12,nomemRT,778,.,5,english
43,2,2,4,nomemRT,619,x,5,english
44,16,12,16,nomemRT,525,.,5,english
45,6,8,6,nomemRT,587,.,5,english
46,13,11,13,nomemRT,1388,.,5,english
47,18,18,14,nomemRT,528,x,5,english
48,12,16,12,nomemRT,614,.,5,english
49,10,10,8,nomemRT,791,x,5,english
50,15,15,17,nomemRT,2723,x,5,english
51,17,17,19,nomemRT,1906,x,5,english
52,8,8,10,nomemRT,1990,x,5,english
53,20,20,18,nomemRT,1010,x,5,english
54,4,8,4,nomemRT,937,.,5,english
55,8,6,8,nomemRT,2490,.,5,english
56,14,14,18,nomemRT,1225,x,5,english
57,7,7,9,nomemRT,730,x,5,english
58,16,16,18,nomemRT,2081,x,5,english
59,5,3,5,nomemRT,2951,.,5,english
60,12,12,16,nomemRT,684,x,5,english
61,19,19,15,nomemRT,602,x,5,english
62,7,3,7,nomemRT,1417,.,5,english
63,20,16,20,nomemRT,802,.,5,english
64,5,1,5,nomemRT,929,.,5,english
65,17,15,17,nomemRT,735,.,5,english
66,6,6,10,nomemRT,744,x,5,english
67,12,14,12,nomemRT,1041,.,5,english
68,11,11,13,nomemRT,1872,x,5,english
69,8,8,4,nomemRT,1012,x,5,english
70,3,5,3,nomemRT,714,.,5,english
71,10,14,10,nomemRT,758,.,5,english
72,3,3,5,nomemRT,906,x,5,english
73,12,12,10,nomemRT,859,x,5,english
74,7,7,11,nomemRT,852,x,5,english
75,4,4,8,nomemRT,866,x,5,english
76,2,2,6,nomemRT,686,x,5,english
77,19,19,17,nomemRT,2413,x,5,english
78,1,3,1,nomemRT,1500,.,5,english
79,4,4,2,nomemRT,605,x,5,english
80,20,20,16,nomemRT,1051,x,5,english
81,14,18,14,nomemRT,930,.,5,english
82,15,13,15,nomemRT,1424,.,5,english
83,20,18,20,nomemRT,1554,.,5,english
84,14,16,14,nomemRT,1054,.,5,english
85,1,1,3,nomemRT,1391,x,5,english
86,13,15,13,nomemRT,795,.,5,english
87,10,6,10,nomemRT,855,.,5,english
88,5,9,5,nomemRT,584,.,5,english
89,3,1,3,nomemRT,1401,.,5,english
90,9,13,9,nomemRT,623,.,5,english
91,15,15,11,nomemRT,688,x,5,english
92,6,6,4,nomemRT,1015,x,5,english
93,16,16,12,nomemRT,664,x,5,english
94,9,11,9,nomemRT,881,.,5,english
95,8,12,8,nomemRT,631,.,5,english
96,13,9,13,nomemRT,795,.,5,english
97,1,5,1,nomemRT,671,.,5,english
98,13,13,15,nomemRT,707,.,5,english
99,12,10,12,nomemRT,1059,.,5,english
100,9,5,9,nomemRT,621,.,5,english
101,14,14,10,nomemRT,710,x,5,english
102,13,17,13,nomemRT,1281,.,5,english
103,10,10,14,nomemRT,856,x,5,english
104,8,10,8,nomemRT,966,.,5,english
105,18,18,16,nomemRT,941,x,5,english
106,7,7,5,nomemRT,790,x,5,english
107,7,11,7,nomemRT,506,.,5,english
108,6,6,8,nomemRT,1395,x,5,english
109,3,7,3,nomemRT,607,.,5,english
110,11,11,15,nomemRT,813,x,5,english
111,13,13,11,nomemRT,1030,x,5,english
112,6,2,6,nomemRT,1306,.,5,english
113,15,17,15,nomemRT,646,x,5,english
114,16,18,16,nomemRT,1276,.,5,english
115,16,20,16,nomemRT,1280,.,5,english
116,13,13,17,nomemRT,951,x,5,english
117,6,10,6,nomemRT,1147,.,5,english
118,11,7,11,nomemRT,711,.,5,english
119,10,10,6,nomemRT,634,x,5,english
120,2,6,2,nomemRT,502,.,5,english
121,7,9,7,nomemRT,575,.,5,english
122,16,16,20,nomemRT,872,x,5,english
123,3,3,1,nomemRT,844,x,5,english
124,5,7,5,nomemRT,754,.,5,english
125,10,12,10,nomemRT,1070,.,5,english
126,14,10,14,nomemRT,698,.,5,english
127,14,12,14,nomemRT,1667,.,5,english
128,7,5,7,nomemRT,1519,.,5,english
129,14,14,16,nomemRT,1019,x,5,english
130,5,5,1,nomemRT,684,x,5,english
131,13,13,9,nomemRT,954,x,5,english
132,19,17,19,nomemRT,1534,.,5,english
133,18,18,20,nomemRT,1760,x,5,english
134,9,9,11,nomemRT,1550,x,5,english
135,9,9,5,nomemRT,642,x,5,english
136,7,7,3,nomemRT,609,x,5,english
137,15,15,19,nomemRT,639,x,5,english
138,9,9,7,nomemRT,875,x,5,english
141,6,6,4,nomemRT_verbalint,3932,.,5,english
142,8,4,8,nomemRT_verbalint,881,.,5,english
143,16,16,12,nomemRT_verbalint,1184,x,5,english
144,10,14,10,nomemRT_verbalint,838,.,5,english
145,13,13,15,nomemRT_verbalint,848,x,5,english
146,1,1,5,nomemRT_verbalint,770,x,5,english
147,17,13,17,nomemRT_verbalint,542,.,5,english
148,3,3,1,nomemRT_verbalint,738,x,5,english
149,57327528,N,right,nomemRT_verbalint,2953,.,5,english
151,16,12,16,nomemRT_verbalint,1589,.,5,english
152,18,18,14,nomemRT_verbalint,1373,x,5,english
153,14,10,14,nomemRT_verbalint,736,.,5,english
154,17,19,17,nomemRT_verbalint,772,x,5,english
155,16,16,14,nomemRT_verbalint,694,x,5,english
156,3,5,3,nomemRT_verbalint,532,.,5,english
157,8,12,8,nomemRT_verbalint,639,.,5,english
158,9,13,9,nomemRT_verbalint,511,.,5,english
159,53595614,N,right,nomemRT_verbalint,5420,.,5,english
161,18,16,18,nomemRT_verbalint,2023,.,5,english
162,16,16,18,nomemRT_verbalint,1399,x,5,english
163,6,6,2,nomemRT_verbalint,1584,x,5,english
164,17,17,19,nomemRT_verbalint,1094,x,5,english
165,5,3,5,nomemRT_verbalint,747,.,5,english
166,7,7,5,nomemRT_verbalint,640,x,5,english
167,7,3,7,nomemRT_verbalint,695,.,5,english
168,7,7,11,nomemRT_verbalint,613,x,5,english
169,14487925,N,left,nomemRT_verbalint,3248,x,5,english
171,18,18,16,nomemRT_verbalint,1165,x,5,english
172,9,7,9,nomemRT_verbalint,1525,.,5,english
173,13,15,13,nomemRT_verbalint,782,.,5,english
174,9,9,13,nomemRT_verbalint,566,x,5,english
175,1,3,1,nomemRT_verbalint,703,.,5,english
176,11,15,11,nomemRT_verbalint,714,.,5,english
177,5,5,7,nomemRT_verbalint,904,x,5,english
178,13,17,13,nomemRT_verbalint,582,.,5,english
179,63931136,N,right,nomemRT_verbalint,2871,.,5,english
181,14,14,10,nomemRT_verbalint,1997,x,5,english
182,15,11,15,nomemRT_verbalint,855,.,5,english
183,19,15,19,nomemRT_verbalint,787,.,5,english
184,8,8,6,nomemRT_verbalint,2441,x,5,english
185,11,7,11,nomemRT_verbalint,567,.,5,english
186,14,14,18,nomemRT_verbalint,693,x,5,english
187,11,9,11,nomemRT_verbalint,1130,.,5,english
188,8,8,10,nomemRT_verbalint,1238,x,5,english
189,83269642,N,left,nomemRT_verbalint,2662,x,5,english
191,12,8,12,nomemRT_verbalint,1023,.,5,english
192,15,15,17,nomemRT_verbalint,1127,.,5,english
193,4,8,4,nomemRT_verbalint,598,.,5,english
194,1,5,1,nomemRT_verbalint,623,.,5,english
195,9,9,7,nomemRT_verbalint,711,x,5,english
196,12,14,12,nomemRT_verbalint,620,.,5,english
197,7,9,7,nomemRT_verbalint,575,.,5,english
198,7,7,3,nomemRT_verbalint,636,x,5,english
199,99968365,N,left,nomemRT_verbalint,3820,x,5,english
201,19,19,15,nomemRT_verbalint,870,x,5,english
202,2,2,4,nomemRT_verbalint,1381,x,5,english
203,13,13,11,nomemRT_verbalint,904,x,5,english
204,2,6,2,nomemRT_verbalint,647,.,5,english
205,16,16,20,nomemRT_verbalint,984,x,5,english
206,10,12,10,nomemRT_verbalint,1446,.,5,english
207,10,10,12,nomemRT_verbalint,816,x,5,english
208,10,10,8,nomemRT_verbalint,1212,x,5,english
209,91831522,N,left,nomemRT_verbalint,3428,x,5,english
211,13,13,9,nomemRT_verbalint,1808,x,5,english
212,2,4,2,nomemRT_verbalint,1114,.,5,english
213,12,12,16,nomemRT_verbalint,1255,x,5,english
214,8,10,8,nomemRT_verbalint,676,.,5,english
215,11,11,7,nomemRT_verbalint,1332,x,5,english
216,20,20,16,nomemRT_verbalint,592,x,5,english
217,10,6,10,nomemRT_verbalint,598,.,5,english
218,8,8,4,nomemRT_verbalint,536,x,5,english
219,74538748,N,right,nomemRT_verbalint,2819,.,5,english
221,7,5,7,nomemRT_verbalint,746,.,5,english
222,15,13,15,nomemRT_verbalint,1498,.,5,english
223,10,10,14,nomemRT_verbalint,733,x,5,english
224,15,15,11,nomemRT_verbalint,529,x,5,english
225,12,16,12,nomemRT_verbalint,2069,.,5,english
226,15,15,13,nomemRT_verbalint,1076,x,5,english
227,5,1,5,nomemRT_verbalint,723,.,5,english
228,12,12,8,nomemRT_verbalint,510,x,5,english
229,69585974,N,right,nomemRT_verbalint,3261,.,5,english
231,16,18,16,nomemRT_verbalint,1444,.,5,english
232,18,20,18,nomemRT_verbalint,983,.,5,english
233,6,4,6,nomemRT_verbalint,699,.,5,english
234,17,15,17,nomemRT_verbalint,1177,.,5,english
235,8,6,8,nomemRT_verbalint,685,.,5,english
236,11,13,11,nomemRT_verbalint,742,.,5,english
237,16,14,16,nomemRT_verbalint,700,.,5,english
238,9,11,9,nomemRT_verbalint,623,.,5,english
239,78162573,N,right,nomemRT_verbalint,2355,.,5,english
241,14,14,12,nomemRT_verbalint,938,x,5,english
242,12,12,14,nomemRT_verbalint,734,.,5,english
243,18,14,18,nomemRT_verbalint,1217,.,5,english
244,8,8,12,nomemRT_verbalint,820,x,5,english
245,4,2,4,nomemRT_verbalint,710,.,5,english
246,4,6,4,nomemRT_verbalint,824,.,5,english
247,4,4,6,nomemRT_verbalint,989,x,5,english
248,6,6,8,nomemRT_verbalint,796,x,5,english
249,84526547,N,left,nomemRT_verbalint,5869,x,5,english
251,9,5,9,nomemRT_verbalint,733,.,5,english
252,2,2,6,nomemRT_verbalint,724,x,5,english
253,14,12,14,nomemRT_verbalint,836,.,5,english
254,14,18,14,nomemRT_verbalint,788,.,5,english
255,3,1,3,nomemRT_verbalint,619,x,5,english
256,13,13,17,nomemRT_verbalint,910,x,5,english
257,3,3,7,nomemRT_verbalint,532,x,5,english
258,16,20,16,nomemRT_verbalint,593,.,5,english
259,32514222,N,right,nomemRT_verbalint,4605,.,5,english
261,15,15,19,nomemRT_verbalint,2238,x,5,english
262,5,5,3,nomemRT_verbalint,712,x,5,english
263,17,17,15,nomemRT_verbalint,587,x,5,english
264,5,9,5,nomemRT_verbalint,523,.,5,english
265,10,8,10,nomemRT_verbalint,2093,.,5,english
266,13,9,13,nomemRT_verbalint,544,.,5,english
267,9,9,11,nomemRT_verbalint,2160,x,5,english
268,5,5,9,nomemRT_verbalint,896,x,5,english
269,91594938,N,left,nomemRT_verbalint,4753,x,5,english
271,6,2,6,nomemRT_verbalint,1913,.,5,english
272,20,16,20,nomemRT_verbalint,1102,.,5,english
273,3,7,3,nomemRT_verbalint,789,.,5,english
274,6,8,6,nomemRT_verbalint,661,.,5,english
275,12,10,12,nomemRT_verbalint,1231,.,5,english
276,7,7,9,nomemRT_verbalint,815,x,5,english
277,3,3,5,nomemRT_verbalint,890,x,5,english
278,4,4,8,nomemRT_verbalint,630,x,5,english
279,54544199,N,left,nomemRT_verbalint,2244,x,5,english
281,14,14,16,nomemRT_verbalint,2280,x,5,english
282,13,11,13,nomemRT_verbalint,2020,.,5,english
283,11,11,15,nomemRT_verbalint,903,x,5,english
284,7,11,7,nomemRT_verbalint,663,.,5,english
285,17,17,13,nomemRT_verbalint,829,x,5,english
286,10,10,6,nomemRT_verbalint,707,x,5,english
287,4,4,2,nomemRT_verbalint,1184,x,5,english
288,12,12,10,nomemRT_verbalint,559,x,5,english
289,67755493,N,right,nomemRT_verbalint,3432,.,5,english
291,19,19,17,nomemRT_verbalint,1409,x,5,english
292,9,9,5,nomemRT_verbalint,1116,x,5,english
293,19,17,19,nomemRT_verbalint,1269,.,5,english
294,5,7,5,nomemRT_verbalint,813,x,5,english
295,11,11,13,nomemRT_verbalint,745,x,5,english
296,6,6,10,nomemRT_verbalint,555,x,5,english
297,20,20,18,nomemRT_verbalint,841,x,5,english
298,6,10,6,nomemRT_verbalint,1281,.,5,english
299,81728193,N,left,nomemRT_verbalint,5215,.,5,english
301,15,19,15,nomemRT_verbalint,2402,.,5,english
302,11,11,9,nomemRT_verbalint,733,x,5,english
303,20,18,20,nomemRT_verbalint,1270,.,5,english
304,1,1,3,nomemRT_verbalint,559,x,5,english
305,14,16,14,nomemRT_verbalint,1949,.,5,english
306,15,17,15,nomemRT_verbalint,1021,.,5,english
307,18,18,20,nomemRT_verbalint,641,x,5,english
308,5,5,1,nomemRT_verbalint,778,x,5,english
309,57142295,N,right,nomemRT_verbalint,4837,.,5,english
312,7,7,3,nomemRT_spatialint,845,x,5,english
313,15,15,19,nomemRT_spatialint,846,x,5,english
314,8,8,6,nomemRT_spatialint,750,x,5,english
315,8,6,8,nomemRT_spatialint,1422,.,5,english
316,10,8,10,nomemRT_spatialint,1330,.,5,english
317,3,3,5,nomemRT_spatialint,628,x,5,english
318,20,20,18,nomemRT_spatialint,844,x,5,english
319,5,7,5,nomemRT_spatialint,884,.,5,english
320,10a,G,right,nomemRT_spatialint,1476,.,5,english
322,3,7,3,nomemRT_spatialint,1119,.,5,english
323,18,16,18,nomemRT_spatialint,789,.,5,english
324,13,17,13,nomemRT_spatialint,621,.,5,english
325,5,9,5,nomemRT_spatialint,514,.,5,english
326,12,16,12,nomemRT_spatialint,663,.,5,english
327,13,11,13,nomemRT_spatialint,725,.,5,english
328,6,6,4,nomemRT_spatialint,1110,x,5,english
329,9,9,7,nomemRT_spatialint,1195,x,5,english
330,12b,G,left,nomemRT_spatialint,1621,x,5,english
332,12,12,10,nomemRT_spatialint,805,x,5,english
333,14,18,14,nomemRT_spatialint,862,.,5,english
334,7,7,5,nomemRT_spatialint,621,x,5,english
335,12,12,8,nomemRT_spatialint,605,x,5,english
336,17,13,17,nomemRT_spatialint,572,.,5,english
337,2,6,2,nomemRT_spatialint,568,.,5,english
338,19,15,19,nomemRT_spatialint,619,.,5,english
339,19,19,15,nomemRT_spatialint,599,x,5,english
340,13b,G,left,nomemRT_spatialint,2207,x,5,english
342,4,4,2,nomemRT_spatialint,667,x,5,english
343,8,10,8,nomemRT_spatialint,968,.,5,english
344,2,4,2,nomemRT_spatialint,737,.,5,english
345,20,16,20,nomemRT_spatialint,652,.,5,english
346,12,12,16,nomemRT_spatialint,1088,x,5,english
347,3,3,7,nomemRT_spatialint,826,x,5,english
348,13,9,13,nomemRT_spatialint,738,.,5,english
349,7,9,7,nomemRT_spatialint,1262,.,5,english
350,4a,G,left,nomemRT_spatialint,2235,x,5,english
352,13,13,11,nomemRT_spatialint,807,x,5,english
353,17,15,17,nomemRT_spatialint,1063,.,5,english
354,4,2,4,nomemRT_spatialint,742,x,5,english
355,12,10,12,nomemRT_spatialint,1221,.,5,english
356,9,11,9,nomemRT_spatialint,1307,.,5,english
357,15,15,11,nomemRT_spatialint,1011,x,5,english
358,13,13,15,nomemRT_spatialint,1407,x,5,english
359,5,5,1,nomemRT_spatialint,614,x,5,english
360,9a,G,right,nomemRT_spatialint,3163,.,5,english
362,9,7,9,nomemRT_spatialint,1606,.,5,english
363,10,10,12,nomemRT_spatialint,929,x,5,english
364,5,3,5,nomemRT_spatialint,1228,.,5,english
365,16,20,16,nomemRT_spatialint,665,.,5,english
366,8,8,12,nomemRT_spatialint,560,x,5,english
367,11,13,11,nomemRT_spatialint,834,.,5,english
368,18,18,14,nomemRT_spatialint,632,x,5,english
369,10,10,8,nomemRT_spatialint,1343,x,5,english
370,3a,G,right,nomemRT_spatialint,2164,.,5,english
372,7,11,7,nomemRT_spatialint,573,.,5,english
373,14,10,14,nomemRT_spatialint,726,.,5,english
374,3,5,3,nomemRT_spatialint,2016,.,5,english
375,15,13,15,nomemRT_spatialint,1020,.,5,english
376,12,12,14,nomemRT_spatialint,1280,x,5,english
377,6,4,6,nomemRT_spatialint,575,.,5,english
378,11,11,13,nomemRT_spatialint,988,.,5,english
379,19,19,17,nomemRT_spatialint,556,x,5,english
380,15b,G,left,nomemRT_spatialint,2930,.,5,english
382,6,6,10,nomemRT_spatialint,690,x,5,english
383,8,12,8,nomemRT_spatialint,769,.,5,english
384,5,5,7,nomemRT_spatialint,599,x,5,english
385,15,19,15,nomemRT_spatialint,959,.,5,english
386,11,11,15,nomemRT_spatialint,576,x,5,english
387,8,4,8,nomemRT_spatialint,732,.,5,english
388,13,13,9,nomemRT_spatialint,544,x,5,english
389,3,3,1,nomemRT_spatialint,1028,x,5,english
390,8b,G,left,nomemRT_spatialint,1868,x,5,english
392,15,15,13,nomemRT_spatialint,1466,x,5,english
393,9,5,9,nomemRT_spatialint,919,.,5,english
394,6,2,6,nomemRT_spatialint,767,.,5,english
395,16,12,16,nomemRT_spatialint,855,.,5,english
396,1,5,1,nomemRT_spatialint,533,.,5,english
397,11,15,11,nomemRT_spatialint,577,.,5,english
398,10,12,10,nomemRT_spatialint,979,.,5,english
399,4,4,6,nomemRT_spatialint,752,x,5,english
400,1b,G,right,nomemRT_spatialint,2061,.,5,english
402,11,9,11,nomemRT_spatialint,666,.,5,english
403,14,16,14,nomemRT_spatialint,800,.,5,english
404,10,6,10,nomemRT_spatialint,1032,.,5,english
405,7,3,7,nomemRT_spatialint,671,.,5,english
406,16,16,14,nomemRT_spatialint,662,x,5,english
407,14,14,10,nomemRT_spatialint,751,x,5,english
408,11,7,11,nomemRT_spatialint,568,.,5,english
409,4,4,8,nomemRT_spatialint,912,x,5,english
410,16a,G,left,nomemRT_spatialint,1110,x,5,english
412,18,20,18,nomemRT_spatialint,877,x,5,english
413,13,15,13,nomemRT_spatialint,683,.,5,english
414,16,16,12,nomemRT_spatialint,525,x,5,english
415,14,14,18,nomemRT_spatialint,678,x,5,english
416,10,10,6,nomemRT_spatialint,1024,x,5,english
417,6,8,6,nomemRT_spatialint,727,.,5,english
418,15,15,17,nomemRT_spatialint,1488,x,5,english
419,11,11,9,nomemRT_spatialint,662,x,5,english
420,2b,G,left,nomemRT_spatialint,1581,x,5,english
422,7,5,7,nomemRT_spatialint,1374,.,5,english
423,16,18,16,nomemRT_spatialint,2024,.,5,english
424,9,9,5,nomemRT_spatialint,655,x,5,english
425,16,14,16,nomemRT_spatialint,632,.,5,english
426,15,17,15,nomemRT_spatialint,691,.,5,english
427,19,17,19,nomemRT_spatialint,1024,.,5,english
428,14,14,16,nomemRT_spatialint,958,x,5,english
429,2,2,4,nomemRT_spatialint,1040,x,5,english
430,6b,G,right,nomemRT_spatialint,1463,.,5,english
432,1,3,1,nomemRT_spatialint,1094,.,5,english
433,9,13,9,nomemRT_spatialint,687,.,5,english
434,14,14,12,nomemRT_spatialint,703,x,5,english
435,7,7,9,nomemRT_spatialint,664,.,5,english
436,18,14,18,nomemRT_spatialint,652,.,5,english
437,4,6,4,nomemRT_spatialint,632,.,5,english
438,1,1,5,nomemRT_spatialint,568,x,5,english
439,6,6,8,nomemRT_spatialint,1105,x,5,english
440,7a,G,right,nomemRT_spatialint,1326,.,5,english
442,17,17,19,nomemRT_spatialint,3040,x,5,english
443,9,9,13,nomemRT_spatialint,710,x,5,english
444,20,18,20,nomemRT_spatialint,1070,.,5,english
445,16,16,18,nomemRT_spatialint,869,x,5,english
446,17,19,17,nomemRT_spatialint,2228,.,5,english
447,3,1,3,nomemRT_spatialint,1131,.,5,english
448,8,8,10,nomemRT_spatialint,1351,x,5,english
449,6,6,2,nomemRT_spatialint,740,x,5,english
450,17a,G,right,nomemRT_spatialint,1721,.,5,english
452,7,7,11,nomemRT_spatialint,992,x,5,english
453,10,10,14,nomemRT_spatialint,784,x,5,english
454,18,18,16,nomemRT_spatialint,630,x,5,english
455,5,5,9,nomemRT_spatialint,546,x,5,english
456,18,18,20,nomemRT_spatialint,1652,x,5,english
457,2,2,6,nomemRT_spatialint,583,x,5,english
458,10,14,10,nomemRT_spatialint,701,.,5,english
459,12,14,12,nomemRT_spatialint,633,.,5,english
460,14b,G,left,nomemRT_spatialint,1671,x,5,english
462,12,8,12,nomemRT_spatialint,2398,.,5,english
463,13,13,17,nomemRT_spatialint,966,x,5,english
464,6,10,6,nomemRT_spatialint,502,.,5,english
465,5,1,5,nomemRT_spatialint,701,.,5,english
466,20,20,16,nomemRT_spatialint,1347,x,5,english
467,5,5,3,nomemRT_spatialint,793,x,5,english
468,11,11,7,nomemRT_spatialint,497,x,5,english
469,1,1,3,nomemRT_spatialint,1301,x,5,english
470,5a,G,right,nomemRT_spatialint,1176,x,5,english
472,16,16,20,nomemRT_spatialint,738,x,5,english
473,17,17,13,nomemRT_spatialint,549,x,5,english
474,9,9,11,nomemRT_spatialint,1606,x,5,english
475,14,12,14,nomemRT_spatialint,895,.,5,english
476,4,8,4,nomemRT_spatialint,770,.,5,english
477,15,11,15,nomemRT_spatialint,790,.,5,english
478,8,8,4,nomemRT_spatialint,611,x,5,english
479,17,17,15,nomemRT_spatialint,726,x,5,english
480,11b,G,right,nomemRT_spatialint,816,.,5,english
4,5,9,5,nomemRT_spatialint,2093,.,6,english
5,19,17,19,nomemRT_spatialint,1656,.,6,english
6,11,7,11,nomemRT_spatialint,1396,.,6,english
7,7,5,7,nomemRT_spatialint,1454,.,6,english
8,13,15,13,nomemRT_spatialint,1410,.,6,english
9,7,3,7,nomemRT_spatialint,934,.,6,english
10,1,3,1,nomemRT_spatialint,1146,.,6,english
11,3,7,3,nomemRT_spatialint,759,.,6,english
12,10a,G,right,nomemRT_spatialint,3359,.,6,english
14,5,5,9,nomemRT_spatialint,1805,x,6,english
15,15,15,19,nomemRT_spatialint,1280,x,6,english
16,8,12,8,nomemRT_spatialint,778,.,6,english
17,14,14,12,nomemRT_spatialint,588,x,6,english
18,11,9,11,nomemRT_spatialint,1461,.,6,english
19,12,12,8,nomemRT_spatialint,600,x,6,english
20,12,10,12,nomemRT_spatialint,977,.,6,english
21,10,12,10,nomemRT_spatialint,1117,.,6,english
22,12b,G,left,nomemRT_spatialint,3081,x,6,english
24,6,6,10,nomemRT_spatialint,1095,x,6,english
25,13,11,13,nomemRT_spatialint,1529,.,6,english
26,20,20,18,nomemRT_spatialint,1170,x,6,english
27,1,1,3,nomemRT_spatialint,1163,x,6,english
28,19,19,15,nomemRT_spatialint,595,x,6,english
29,2,6,2,nomemRT_spatialint,1601,.,6,english
30,3,3,1,nomemRT_spatialint,684,x,6,english
31,10,8,10,nomemRT_spatialint,1709,.,6,english
32,13b,G,left,nomemRT_spatialint,2306,x,6,english
34,12,8,12,nomemRT_spatialint,764,.,6,english
35,5,7,5,nomemRT_spatialint,961,.,6,english
36,15,15,11,nomemRT_spatialint,507,x,6,english
37,15,17,15,nomemRT_spatialint,905,.,6,english
